Packet number,Accelerometer X (g),Accelerometer Y (g),Accelerometer Z (g)
3,-0.161602442,0.120174074,9.596757853
5,-0.122628451,0.315637789,9.425655337
6,-0.178777062,0.330180484,9.445955241
8,0.016043446,0.038758584,9.528445426
9,0.141715757,-0.162492258,9.756854178
11,0.094701384,-0.208684079,9.867626779
12,-0.09377855,0.126910842,9.616551972
14,-0.204955477,0.198112832,9.469128125
15,-0.070380393,0.081215477,9.532955848
17,0.047233695,-0.21924024,9.788417442
18,0.085304875,-0.322752145,9.699910295
20,0.0219365,0.010842615,9.718728928
21,-0.045643635,0.090066032,9.553669005
23,-0.075021162,0.206444314,9.644006247
24,0.048585383,-0.033574263,9.732519657
26,0.036604515,-0.114658341,9.742936467
27,0.060567299,0.010337786,9.660657069
29,0.017413544,0.097962308,9.535311676
30,-0.086637677,0.0725138,9.628619707
32,0.012566164,-0.0279836,9.617187644
33,0.031955417,-0.051754077,9.749869708
35,0.068730006,-0.15103303,9.680596843
36,-0.03563953,0.088521871,9.708076036
38,-0.075969029,0.010103666,9.621793944
39,-0.013879277,0.001805026,9.736607949
41,-0.030778344,-0.074656157,9.728064519
42,-5.41E-04,-0.031905003,9.655729743
44,0.047658477,0.102795117,9.613039871
45,0.147770909,0.107271622,9.555510265
47,-0.020624309,0.054238817,9.66525411
48,0.036085882,0.028963991,9.758881842
50,0.004723243,-0.018358185,9.714948091
51,0.047719975,-1.97E-04,9.658969717
53,0.024954407,-0.015864639,9.676383709
54,0.089147088,0.013254301,9.641045447
56,0.05392952,-0.068093477,9.728200905
57,0.080772315,-0.122902217,9.64468173
59,0.043480854,0.054572431,9.722925413
60,0.058608884,-0.039501748,9.654212294
62,0.062607458,0.058369265,9.665314159
63,0.025796841,-0.01264406,9.67638655
65,0.021428454,0.052494113,9.645180364
66,0.004978764,0.076252326,9.647802381
68,0.044797756,0.074739799,9.58968105
69,0.049230397,0.178704392,9.717031274
71,0.078919283,0.317121824,9.636726007
72,-0.046718122,0.282724357,9.671482671
74,0.07055382,0.282805017,9.613447988
75,0.101467519,0.490640391,9.772735875
77,0.132250015,0.362845598,9.73967705
78,0.053070299,0.369328731,9.644557523
80,0.062042179,0.430787682,9.593951861
81,0.163983695,0.358692625,9.489398476
83,0.072655438,0.466815923,9.733783943
84,0.161361977,0.329021765,9.69892187
86,0.027016421,0.260181655,9.691232155
87,0.16021392,0.328370952,9.680013364
89,0.078145894,0.302353109,9.715800082
90,0.106780333,0.450414017,9.714266162
92,0.081623595,0.214781565,9.725799404
93,0.113768026,0.383145077,9.726469196
95,0.057654547,0.108291145,9.655686028
96,0.090399608,0.365570985,9.743857448
98,0.061062911,0.221601234,9.669355366
100,0.033594421,0.28228726,9.696004885
102,0.006054527,0.234212023,9.632966144
103,0.112507639,0.352213296,9.762587543
105,0.13480898,0.2824529,9.638650747
106,0.087851488,0.324105525,9.682751818
108,0.062270723,0.290835512,9.659919451
109,0.049366595,0.226015414,9.710416746
111,0.09908488,0.265926817,9.754113118
112,0.039886377,0.08573467,9.713467219
114,0.141135714,0.180839551,9.705645064
115,0.048726659,0.133385289,9.622823669
117,0.095979893,0.25039639,9.694931206
118,0.021541434,0.098266373,9.618940827
120,0.018897409,0.259740359,9.735168892
121,0.042766483,0.179911874,9.687185329
123,0.022441636,0.26166255,9.697201464
124,0.002383336,0.169636893,9.667050925
126,-0.019736503,-0.022382811,9.722432714
127,0.080867643,0.177805512,9.650669653
129,-0.070731366,0.114839056,9.624108633
130,0.148367269,0.212123464,9.71295213
132,0.026444938,0.113737477,9.604694392
133,0.106814187,0.295762895,9.723750861
135,0.030196102,0.208705924,9.692467255
136,0.120102782,0.259963241,9.756387203
138,0.119486921,0.180554767,9.592470503
139,0.097384003,0.34861857,9.709486822
141,0.105427357,0.287537314,9.683256825
142,0.048168299,0.459718481,9.820460367
144,0.073129038,0.304421892,9.724776375
145,0.13615908,0.508638147,9.692381133
147,0.147893574,0.388424956,9.658747219
148,0.20532574,0.661023976,9.712379824
150,-0.009494319,0.492613053,9.654211466
151,0.129434896,0.67707584,9.774725304
153,0.03869557,0.63411797,9.751278997
154,0.130343433,0.592947414,9.708720639
156,0.107256628,0.766009537,9.867484836
157,0.075616724,0.715506913,9.766731816
159,0.117520863,0.840334802,9.726692698
160,0.155863718,0.908073647,9.67967052
162,0.203947706,1.110057287,9.76721739
163,0.240043056,1.115286836,9.731933141
165,0.256639142,1.016287195,9.60605465
166,0.104650271,0.873619278,9.628573782
168,0.101375913,1.1834573,9.867597614
169,0.15439613,1.424270525,9.943248743
171,0.225484108,1.218150295,9.783426237
172,0.274537794,0.967375084,9.656745968
174,0.118559307,0.882513533,9.668003838
175,0.018953556,0.967733999,9.683313247
177,0.051366475,1.199923393,9.855895164
178,0.231341998,1.256967527,9.92640773
180,0.248047909,1.187268287,9.74546653
181,0.219429979,1.133000515,9.626323332
183,0.212667507,0.979589137,9.761923608
184,-0.012537214,0.945566045,9.7991404
186,-0.029010661,1.250942145,9.927752524
187,-0.114959982,1.212546781,9.846868239
189,0.140389193,1.021648056,9.645768061
190,0.308339167,0.967263045,9.679718787
192,0.320152887,0.999555032,9.728233657
193,0.055273096,1.160763639,9.83558502
195,-0.012532169,1.446269777,9.886832432
197,-0.047340274,1.365890558,9.956005212
199,0.206802817,1.242983923,9.82401571
200,0.460674798,1.325483211,9.765144675
202,0.355537149,1.27992159,9.82095354
203,-0.015292488,1.365291338,9.879916582
205,-0.063469683,1.361154839,9.845851273
206,0.108644202,1.198121741,9.822091539
208,0.268120063,1.087402562,9.827579779
209,0.32307298,1.242978514,9.900294226
211,0.110597648,1.153797314,9.888277173
212,0.057382548,1.257323531,10.03009645
214,0.112173808,1.156747561,9.899150881
215,0.140866929,1.237080026,9.782428647
217,0.131181301,1.352041676,9.927088227
218,0.119061984,1.024703324,9.889674124
220,0.249565189,1.211607016,9.931365213
221,0.250597628,1.055595936,9.651097926
223,0.287696554,1.452562547,10.02742998
224,0.196479947,1.195539011,9.923364238
226,0.318693404,1.223353883,9.894912464
227,0.339630224,1.554819239,10.02547108
229,0.047254697,1.147404272,9.96714171
230,-0.038228175,1.335927881,10.08994566
232,0.080781337,1.392258928,10.04744974
233,0.21280841,1.200629184,9.836206377
235,0.431259364,1.188038244,9.917614227
236,0.269242863,0.7762162,9.599310886
238,0.122545889,1.033220424,9.93231416
239,-0.244957995,0.80686222,9.926767717
241,0.006451734,0.834886842,9.721306162
242,0.254444132,0.826443848,9.782530088
244,0.325328929,0.862001932,9.933254787
245,-0.077613688,0.867555705,10.1545986
247,-0.073040008,1.048530827,9.90456477
248,-0.105991575,1.053908823,9.948602057
250,0.176274027,0.759745278,9.889186928
251,0.314662333,0.32755285,9.855439939
253,0.325062942,0.500969735,9.740590039
254,0.274136798,0.589181457,9.625051343
256,0.052240304,0.437210996,9.710783474
257,0.028903195,0.576497253,9.924086689
259,0.039050202,0.500035163,10.04581991
260,0.216585273,0.50224434,9.993209587
262,0.252308379,0.386958099,9.909706498
263,0.276681203,0.43671426,9.727258325
265,0.209770955,0.424893283,9.725288352
266,-0.077619306,-0.020070877,9.618866852
268,-0.007029551,0.388818502,10.03614737
269,-0.014650925,0.286450476,9.698010422
271,0.169748153,0.639789893,9.708179104
272,0.134506965,0.695200995,10.10061253
274,-0.130430399,0.248906339,9.953873032
275,0.176183258,0.542253843,9.97020736
277,0.248778333,0.50926027,9.86574036
278,0.270653696,0.515073933,9.949051709
280,0.11366409,0.506065695,9.811305675
281,0.036919387,0.61767489,9.940090074
283,-0.033272023,0.727340089,10.148076
284,-0.014580772,0.519713615,9.961599382
286,0.165063916,0.186437838,9.861306829
287,0.454991974,0.128111928,10.00869771
289,0.235309197,-0.304714907,9.879630232
290,-0.048561384,0.084741977,9.938349582
292,-0.362713407,0.374890332,10.18821922
294,0.059039754,0.519976121,10.15184473
296,0.317741127,0.514429107,10.21248118
297,0.204516726,0.015334122,10.0267955
299,-0.081780088,-0.057429479,9.650420019
300,-0.32618888,0.242425016,9.605494865
302,-0.484149515,0.446800658,9.677866527
303,-0.203380663,0.133278904,9.721456308
305,0.334434443,0.627787385,10.03360712
306,0.479191953,0.119314395,9.627915515
308,0.176664071,-0.187981519,9.407405362
309,-0.431768921,-0.105240356,9.818780641
311,-0.311099001,-0.113200722,9.95869178
312,0.165366925,0.084769024,10.07565927
314,0.556904734,-0.022342573,10.01460232
315,0.444499157,-0.484741164,9.556909166
317,-0.106533395,-0.173165355,9.648718674
318,-0.36747152,-0.02094522,9.923549939
320,-0.398972247,0.450274459,10.34496802
321,0.247788834,0.494784718,9.91176046
323,0.415268254,-0.141858326,9.627437239
324,0.361676457,-0.3380426,9.775141462
326,-0.197743445,-0.205048927,9.98096446
327,-0.551903045,0.243492644,9.914624613
329,-0.258484271,0.157005242,9.736950465
330,0.174609836,-0.072656856,9.682843115
332,0.590041668,-0.45806234,9.589063744
333,0.107411842,-0.713951374,9.456986872
335,-0.363123592,-0.113469923,9.824790698
336,-0.552819413,0.36581479,10.20521782
338,-0.137431085,0.293530675,10.09349843
339,0.230419082,-0.251968051,9.836466476
341,0.552015544,-0.753441587,9.451240666
342,0.152977078,-0.425850054,9.450869191
344,-0.303510283,0.311413713,9.912098319
345,-0.243517119,0.317023862,9.914999851
347,0.236474326,-0.330788821,9.774717407
348,0.542952219,-0.856308426,9.68288469
350,0.305743427,-0.053936335,10.10647693
351,-0.172489317,0.087691026,9.895585188
353,-0.599340595,0.365111499,10.05671873
354,-0.58523194,-0.280863276,9.573965519
356,-0.171946282,-0.158431295,9.753445561
357,0.156980058,-0.017669182,9.795893355
359,-0.125055885,0.172735855,9.761266396
360,-0.050390842,-0.181155908,9.433049452
362,0.098977818,0.397068859,9.92480312
363,0.200173228,0.076221374,10.121343
365,0.031122276,-0.555023757,9.577992022
366,-0.054751526,0.187449645,9.791792875
368,-0.046596095,0.367352187,9.85919121
369,-0.006686728,-0.080062135,9.762852129
371,0.170237225,-0.19180851,9.876228151
372,0.452158994,-0.057309106,10.13466908
374,0.249958039,-0.208666347,9.794339648
375,0.121963759,-0.174641283,9.603385414
377,0.154907017,0.184289298,9.81762894
378,0.200115639,0.13308083,9.824699561
380,0.145332457,-0.656070569,9.636141391
381,0.072244475,-1.20648232,9.410514092
383,0.134192699,-0.363067505,10.0086909
384,-0.27751085,-0.322936745,9.927598169
386,-0.314382373,-0.581154212,9.897159628
387,-0.084226251,-0.519610862,9.799220537
389,0.212810864,-0.243000727,9.915872933
392,0.208709887,-0.749808715,9.426556013
394,0.032703985,-0.690940251,9.237662953
395,0.221877835,0.133530375,9.868916961
397,0.149885982,-0.376175214,9.716571951
398,-0.02666331,-0.733789216,9.541126458
400,-0.072129268,-0.034838901,9.916704195
401,0.060725438,-0.128009559,9.735643516
403,0.180086708,-0.76808776,9.415490354
404,0.277835427,-0.616890272,9.61397934
406,0.163468222,-0.129857503,9.872372576
407,-0.042262301,-0.632813359,9.581456004
409,-0.023100706,-0.556583141,9.660532327
410,-0.117123079,-0.094405862,9.992048685
412,-0.177989588,-0.510554755,9.567960765
413,-0.34282144,-0.390145652,9.731713476
415,0.005308957,-0.272347592,9.946001096
416,0.034280123,-1.18279675,9.262541143
418,0.148570194,-0.355026951,9.965099543
419,-0.174811458,-0.37753465,9.891064458
421,-0.640107374,-0.867792681,9.559949729
422,-0.630870763,-0.222578243,9.738748218
424,-0.188934138,-0.008985161,9.758849781
425,0.013235975,-1.110489452,9.214267236
427,0.286375982,-0.418353098,9.841986647
428,0.061889561,-0.92343829,9.711701698
430,-0.109870829,-1.215542239,9.38020349
431,-0.235498212,-0.276728924,9.719913165
433,-0.252940691,-0.857533884,9.539142095
434,-0.011642148,-1.149269669,9.590636371
436,0.350414952,-0.696141559,9.800036314
437,0.327125393,-1.135767928,9.537120583
439,0.156783248,-0.865008667,9.694220407
440,-0.138457208,-0.529130372,9.78350138
442,-0.186718273,-0.880648816,9.424128377
443,0.283102919,-0.622190958,9.64868063
445,0.5716272,-1.286407333,9.522096137
446,0.113367188,-1.358650317,9.534663407
448,-0.256451691,-0.369300277,9.844271966
449,-0.451165792,-0.192727787,9.819307657
451,-0.355663073,-0.724211933,9.78186854
452,-0.104427483,-0.067561371,10.18801388
454,-0.065881236,-0.398459214,9.562826963
455,0.257828892,-0.061322508,9.563290656
457,0.193136501,-0.054430947,9.937116635
458,-0.01322019,-0.667322681,9.543958037
460,-0.203047718,-0.135235306,9.598808279
461,-0.185311174,0.209214665,9.910997492
463,-0.445026079,-0.61034237,9.589784174
464,0.028621161,0.314461694,9.585641343
466,0.393422909,0.434120965,9.793878874
467,0.662524558,-0.347195129,10.2342718
469,0.001206378,-1.272391394,10.13883382
470,-0.164068153,-0.160139628,10.01047017
472,-0.554598965,1.027979629,9.025567421
473,0.002747995,1.19081735,9.111441931
475,0.490787624,-0.825613186,9.698722417
476,0.640239543,-1.163334721,10.43235544
478,0.336567921,-1.322006924,9.545717854
479,-0.103932193,0.318361543,8.957822831
481,-0.788518301,0.694415903,9.204223312
482,-0.300442453,0.467980895,10.3102536
484,0.353068923,-0.896982325,10.11273181
485,0.996833931,-0.534357587,10.02367974
487,0.575130427,-0.356070211,9.367272711
489,-0.313888777,0.586686801,9.740558114
491,-0.990745427,-0.017882642,9.953352907
492,-0.527807738,-0.650977789,10.4679493
494,0.514010734,-1.43824483,9.769705755
495,1.047761057,-0.331915256,8.916383351
497,0.444519978,0.897121451,8.667359805
498,-0.604823958,0.080521916,9.128087186
500,-0.825774628,-0.304962256,10.41924805
501,-0.229634982,-1.630360796,9.916652731
503,0.530902918,-0.815231,9.451825911
504,0.586075226,-0.011236654,9.131848015
506,-0.006517535,-0.242701191,9.409933455
507,-0.540288761,-0.065160078,10.48623109
509,-0.361595331,-0.246022593,10.15457353
510,-0.006985038,-0.982486372,9.074465927
512,0.488054164,0.481174131,9.581954423
513,0.351357082,0.612009797,9.826229245
515,-0.282125115,-0.769684267,10.23510171
516,-0.584667891,-1.528950423,10.32643289
518,-0.447187774,-0.381971238,10.33520604
519,0.02044123,0.422983416,9.679540859
521,0.352767392,0.148289068,9.46398055
522,0.390190312,-0.613727276,10.1286128
524,-0.069637898,-1.355423737,10.24645279
525,-0.180655188,-0.278292337,9.748289896
527,-0.162080527,0.299574039,9.435580328
528,0.283670808,0.16592835,9.880440322
530,0.57189108,-1.044915829,9.646055405
531,0.519570146,-0.486507651,9.723911123
533,0.050205665,-0.197611587,9.429121619
534,-0.219721957,0.309065902,9.57250041
536,-0.001539375,-0.422401912,9.206392534
537,0.660916367,-0.833989179,9.454722539
539,0.893541881,-0.332505366,9.854800067
540,0.335858898,-0.227390971,9.207965185
542,-0.28578997,0.669620648,9.041872703
543,-0.258142734,0.577515371,8.690243433
545,0.452357103,0.148964893,8.9522805
546,0.729212456,-1.136023033,9.270605557
548,-0.119174164,-0.137888135,10.46356577
549,-1.233956231,-0.060326387,9.848773868
551,-0.660950851,0.412300283,9.770072801
552,0.175057339,-0.42303847,9.791616278
554,0.619417656,-0.705100915,10.37815276
555,-0.085973036,-0.693514388,10.10499802
557,-0.880446411,0.397355131,10.40557533
558,-1.087674465,-0.319620192,9.984160723
560,-0.247433374,-0.24739445,10.05507259
561,0.298898964,-0.627431638,9.798747247
563,0.773346241,-0.588113214,10.07764528
564,0.14269361,-0.932084574,9.970841683
566,-0.566200298,-0.135813635,9.663830802
567,-0.863251006,0.5657011,9.588591064
569,0.162221839,0.100709674,9.410387523
570,1.000134175,-0.541901155,9.783939254
572,0.753992015,-0.160332352,9.901817488
573,0.209352502,0.457869832,9.400294506
575,-0.27732009,0.590541753,9.111586062
576,-0.091261912,-0.117501526,9.326391669
578,0.345855068,-0.406485483,9.698365529
579,0.835563203,-0.619267966,9.361039189
581,0.762812031,0.11640427,9.503825261
582,-0.017028574,0.359052433,9.653309036
584,-0.078556339,0.565219185,9.655770465
586,0.146751986,-0.067054381,9.590554891
588,0.547809516,-0.502569217,9.366072927
589,0.718739059,0.691059361,10.28481884
591,0.129567853,0.316043848,10.05809581
592,-0.650299174,-0.66498086,9.691712392
594,-0.344260166,0.114146434,10.21808297
595,0.079390872,0.049912353,10.12449783
597,0.359498969,-0.125361144,10.04769349
598,0.133542366,-0.884658809,9.429500739
600,-0.349981976,-0.271904983,9.903156415
601,-0.909466916,-0.529659505,10.01100083
603,-0.644297235,0.271719476,10.30472317
604,-0.177472912,-0.224817768,9.343834578
606,0.171967786,0.157534497,9.143077029
607,0.055644784,0.149509834,9.76886732
609,-0.018121295,-0.091458836,9.899390058
610,0.256452849,-0.238321356,9.360457982
612,0.385832448,0.147692174,9.238119747
613,0.104553972,0.334730157,9.295465091
615,0.136797174,0.698771093,9.895659661
616,0.336645198,-0.282462637,9.664869674
618,0.631661083,-0.156684568,9.611082885
619,0.568024553,0.777511395,9.422427483
621,0.132049689,0.414454138,8.548510783
622,-0.229606348,0.097156347,9.093203471
624,-0.306211813,-0.030429966,10.30258085
625,0.202199252,-0.740651088,9.84964268
627,0.438694228,0.141132349,9.728591013
628,0.365925529,0.542462223,9.904439333
630,-0.433504747,-0.218349593,10.22422678
631,-0.708326139,-0.501443704,10.11037238
633,-0.034882551,-0.0993903,10.14928229
634,0.753707801,0.386279672,10.14416713
636,0.457966573,-0.595680096,9.052758574
637,-0.135023717,0.404322532,9.343369809
639,-0.546958454,0.262420923,9.746029419
640,0.079045094,-0.260373998,10.19376169
642,0.984240385,0.178845613,9.985362515
643,0.891743285,0.149431988,9.000421578
645,0.096535995,0.833660496,9.421716168
646,-0.839296614,-0.335709531,10.0343348
648,-0.335898261,-1.159239413,9.879024246
649,0.258125624,-0.745677264,9.493335774
651,0.294734993,-0.250599658,9.05883501
652,-0.0267013,0.253848258,9.327271746
654,-0.570300241,-0.138324754,9.739524111
655,-0.161344447,-0.235573617,10.11584663
657,0.251561585,-0.175646883,10.08965882
658,0.218801983,0.40421779,9.829208044
660,0.031004842,0.981949345,9.509539146
661,-0.378086351,0.51324433,9.342282866
663,0.171434519,0.350998475,10.33140517
664,0.584079901,-0.656444466,9.630530093
666,0.815912906,-0.381038572,8.825761636
667,0.268434336,0.093675784,9.245937897
669,-0.654014576,4.40E-04,10.08396024
670,-0.652621371,-0.649659789,10.03544813
672,0.146726648,0.209622891,9.426687287
673,0.690931003,1.020401033,9.446650269
675,0.578582056,-0.270385728,9.491683181
676,0.248609132,-0.743196203,9.731849792
678,-0.049509928,-0.439998145,9.749168541
679,-0.205445997,0.25059658,9.80202993
681,-0.245354267,0.698311502,9.339579625
683,0.090071026,1.068436402,9.335189653
685,0.307798563,0.114841329,9.233373087
686,0.246621381,-0.79697857,9.135110489
688,-0.006528615,-0.267295052,9.586195371
689,-0.456018191,0.301893381,9.670545507
691,-0.614239404,0.24796083,9.363770162
692,-0.098712218,-0.493335176,9.383731414
694,0.512405461,-0.772607219,9.841890585
695,0.372506856,-0.588507896,9.933211065
697,0.009037953,0.210710084,9.670507935
698,-0.34608599,0.633319809,9.569264823
700,-0.259358986,0.596769162,10.05196451
701,-0.156915868,-0.589694115,9.868949508
703,0.255245476,-0.11542503,10.19462352
704,0.530646428,-0.751039142,9.255361818
706,0.790249186,0.853567398,9.929241644
707,0.183284835,-0.361175908,9.579279123
709,-0.262884009,0.022246166,10.01740498
710,-0.560516316,-0.510054693,9.640638494
712,0.028122997,0.023561815,9.629479735
713,0.245834108,0.094051411,8.941914834
715,0.085116758,0.63217919,8.960025769
716,-0.257283098,0.501416655,9.870478399
718,-0.047692096,-0.440898849,10.24732988
719,0.591015803,-0.445130341,9.822237567
721,0.47844976,0.601122288,9.332120475
722,-0.119701245,0.87698349,9.475634861
724,-0.585122315,0.146164041,9.962397438
725,-0.130192587,-0.381504359,9.986315204
727,0.478293788,-0.368360894,9.757292044
728,0.394651723,0.032562186,9.636758817
730,0.045958219,-0.016633533,9.704245
731,-0.007359551,0.17325868,9.896234314
733,-0.60259358,-0.115798957,9.582147584
734,-0.173456422,0.415749285,10.13724046
736,-0.055981922,-0.096952088,10.17803351
737,0.453895786,0.206207239,9.983016628
739,0.561920585,0.243097107,9.873878035
740,0.135994988,-0.345345633,9.583981937
742,-0.480828741,-0.709070932,9.823984941
743,-0.80012391,-0.337119022,9.580663434
745,-0.008184718,0.677805617,10.18698231
746,0.294238237,0.013883214,10.31666524
748,-0.348383151,0.062980707,10.26699002
749,-0.711011378,0.899819433,10.07229115
751,-0.205647425,0.47586464,9.546086736
752,0.669377115,-0.564504204,9.666338382
754,0.30297767,-0.430452611,9.671227719
755,-0.31047262,0.191545672,8.945609138
757,-0.307976684,1.121188483,9.041503663
758,0.14678603,0.425573339,9.365212075
760,0.496573571,-0.701067767,9.641811541
761,0.53451034,0.197104831,9.461992225
763,0.249716257,0.791122877,9.611798914
764,-0.326965057,-0.36917185,9.563895803
766,-0.082779921,0.275707158,10.20066817
767,0.127533381,0.225893199,10.05495099
769,0.420797316,-0.568902873,9.783286587
770,0.193417076,-0.258519859,9.978629649
772,-0.65350095,0.605867267,9.771657464
773,-1.304372715,0.578055074,9.550313375
775,-0.814098342,-0.166771757,9.800548119
776,0.783182153,-0.12746037,10.23860454
778,1.39906956,-0.241873486,9.861790664
781,0.422009016,0.575671682,10.44900255
783,-1.94983677,-0.628117338,10.14913081
784,-1.73672196,0.018692071,10.04006878
786,0.186827325,-0.19694539,9.593196677
787,1.837884211,-0.439463357,9.526655581
789,0.667638104,-0.845929697,9.920012708
790,-0.633730748,-0.427152371,9.898733876
792,-0.783299391,1.004312383,9.680848132
793,-0.081324977,0.929431472,9.006059761
795,0.903821899,-0.287172159,8.71930747
796,0.93602747,-0.780132474,9.583605458
798,0.253091059,-0.077174757,9.720858537
799,-0.672786949,0.73657875,9.834714626
801,-0.97659641,0.480518153,9.043632303
802,-0.015289783,0.587028331,9.692358713
804,0.759311191,-0.982342793,9.780170757
805,0.800076228,-0.432551886,10.65356575
807,-0.004095422,0.542531372,10.56951257
808,-1.070694634,0.326557702,9.386378737
810,-0.428957865,0.922233541,9.720046127
811,0.163490936,-0.92188121,9.520537063
813,0.751140071,-0.341838698,10.6325818
814,0.050277914,0.007355687,10.22873254
816,-0.816812954,0.090426024,9.516886134
817,-0.722282735,-0.296161969,8.875714236
819,0.234668211,0.087243168,9.770133971
820,0.484894485,-1.023565745,9.751644412
822,0.912453785,0.187540206,10.35679138
823,0.187517872,-1.142913415,8.868655675
825,-0.401317633,0.68780591,9.837589805
826,-0.712568302,0.097917987,9.588236877
828,-0.101850359,0.733898613,10.18532461
829,0.55496372,-0.621242031,9.790695497
831,0.875615822,-0.264581259,9.665147604
832,0.501355447,0.589572807,9.140882408
834,0.119191854,1.040264338,8.87248167
835,-0.253859411,0.148989077,9.326905952
837,-0.356678316,-1.020090551,9.63295452
838,0.042210821,-0.278852099,9.755499034
840,0.214381963,0.790131094,9.957746111
841,-0.232395565,0.228652556,9.848618407
843,-0.284478793,-0.350487459,9.876260721
844,-0.267753182,-0.476127424,9.910470085
846,0.111222031,-0.456105326,9.934919385
847,0.323864647,-0.239386708,9.798849024
849,-0.077828392,-0.23828525,9.17074113
850,-0.58326358,-0.564261418,9.145786211
852,-0.23270692,0.132429866,10.27324598
853,0.617837201,-0.064716052,9.772629486
855,0.830409817,-0.779384896,8.800117534
856,0.414839954,-0.604940294,9.200248403
858,-0.189843369,-0.887729439,9.708443179
859,-0.517228545,-0.531582745,9.828598652
861,-0.465916272,-0.098297258,9.750490393
862,-0.299800768,0.664632617,10.18093677
864,-0.066834936,-0.393399489,9.816767742
865,0.967516783,-0.281009843,10.25318395
867,1.417531097,-0.687795334,9.808809771
868,0.749471237,0.066345674,9.824555383
870,-0.543932664,-0.160137327,9.072443338
871,-0.943151811,0.93786858,9.616141173
873,-0.504096394,0.239634273,9.749942808
874,0.204808334,-0.136836363,9.886195379
876,0.440872491,-0.517474414,9.330886485
878,0.200227002,0.219636692,9.227558979
880,-0.737115488,0.109150027,9.297510596
881,-0.31677462,0.177373877,10.15497358
883,0.692746283,-0.343128384,10.28115945
884,1.142811096,-0.166479368,9.590372411
886,-0.195833495,0.004532346,8.620671928
887,-1.900150387,0.32582011,9.389179446
889,-1.308390691,0.217908361,10.19750577
890,0.401782597,-1.036812061,9.859443339
892,1.911234967,-0.954307247,9.076203434
893,0.840722615,0.336732602,9.480197271
895,-1.026172706,-0.479482922,10.20271474
896,-2.310439881,-0.589529343,9.550570346
898,-0.852313601,1.632831676,9.021426498
899,1.250907449,0.946988488,8.116510688
901,1.713831331,-1.272250641,9.515102015
902,0.433056622,-1.499291034,9.654308998
904,-0.79838746,0.118375546,9.920547206
905,-0.622813949,0.582848583,9.435461785
907,0.249913744,-0.310655039,9.199716844
908,0.752449437,-0.432960043,9.955826209
910,0.33730898,-0.181275693,10.46780532
911,-0.639781664,-0.45662083,9.407548369
913,-0.686907301,0.505095964,8.96592986
914,0.110807795,0.295521966,9.632243928
916,1.139603422,-0.279577032,10.09533857
917,1.152035343,-0.370996673,10.58608316
919,-0.289913637,-1.018842977,9.61987504
920,-2.250055303,-0.240011994,9.28458498
922,-1.274909168,1.789146389,9.826891271
923,0.001285869,0.480495198,9.775924011
925,1.072954429,-1.168665048,10.07302125
926,0.760732473,-0.762816683,10.14596782
928,-0.390006672,-0.426800489,8.9801464
929,-0.754360234,0.832085134,9.0720379
931,-0.316434139,0.603911804,9.949083583
932,0.776136644,-1.555043347,9.952910845
934,0.990599422,-1.310359106,9.956324278
935,0.177407046,-0.232113149,9.049541868
937,-0.830580018,1.054892076,9.32062
938,-0.669993866,0.34271195,9.436813584
940,0.374374157,-0.233819578,10.41314115
941,0.662941373,-1.251135493,10.31802967
943,0.402380919,0.604600978,9.931892802
944,-0.31214205,1.029914699,9.317033788
946,-0.506652381,0.219421427,9.358422658
947,-0.214314558,-0.975524386,9.43159477
949,0.392038203,-0.416717452,10.14966071
950,0.259765418,-0.540540423,9.718847701
952,-0.194281976,0.79571247,9.497266196
953,-0.119725294,1.358195351,9.672173179
955,0.148191094,-0.707844642,9.2639874
956,0.722414857,-1.229940194,9.700755804
958,0.392904913,-0.735602257,9.375992606
959,-0.199605062,0.603677537,9.484448197
961,-0.822393242,0.525266337,9.528217674
962,-0.89012857,0.616118326,10.07173725
964,-0.06252024,-0.597854672,9.983449278
965,0.617828859,-0.841083341,9.901777575
967,0.553705012,-0.040215014,9.822147175
968,-0.02367252,-0.321749816,9.055700492
970,-0.09509357,-0.445417829,8.956681466
971,-0.327377682,-0.349206836,9.537878583
973,-0.64882665,-0.011470606,10.21822123
975,-0.359915342,0.494448732,10.40158874
977,0.251845555,0.343845674,10.10282059
978,0.804905331,-0.282575648,9.235250865
980,1.016014046,0.224456331,9.028832465
981,-0.006181786,-0.597603075,9.009320021
983,-1.264710378,0.124471289,9.287173406
984,-1.267528465,0.982609636,9.100526712
986,0.036156846,1.149723745,9.188216554
987,0.891686735,0.16805119,9.331937081
989,0.469125144,-0.366066425,9.438128443
990,-0.400124843,0.178126847,9.511931893
992,-0.831946203,0.100291242,9.593976127
993,0.046969435,0.491521555,9.873713887
995,0.619103472,0.05448775,9.505179611
996,0.692471605,-0.392553611,9.7213442
998,0.260416354,-0.260021997,10.50215677
999,-0.25818214,0.095232717,10.75623027
1001,-0.086065531,-0.852620059,9.196456672
1002,0.337566912,0.320808063,9.463980146
1004,-0.092405669,-0.731354175,9.563945858
1005,-0.636956474,-0.622256883,10.39645917
1007,-0.523388038,-0.533659988,10.06248978
1008,0.142202546,0.204502779,9.539617908
1010,0.317606524,0.6968783,9.346816961
1011,0.096364866,0.074398694,9.579197022
1013,0.101338028,-0.987028142,9.814665356
1014,0.259448237,-0.153522203,10.43983619
1016,0.265666778,-0.300218155,9.151162514
1017,0.057830493,0.903591989,9.09523525
1019,-0.344677107,0.245142246,9.515021708
1020,-0.364433899,0.074001954,10.36621613
1022,0.042754856,-0.74950317,9.80013966
1023,0.441383908,0.642913486,9.568270731
1025,0.139448593,1.318745674,9.137434387
1026,-0.052960404,-0.3327397,8.586969562
1028,0.10421288,0.165872518,10.05277568
1029,0.163005619,-1.032185803,9.500340812
1031,0.409856079,0.153845739,9.097176972
1032,-0.046137094,0.161285399,8.299650285
1034,-0.542466593,0.581554303,9.030196768
1035,-1.240773355,-0.335844715,9.306790402
1037,-0.872096242,-0.92197183,9.928503635
1038,0.201672299,0.017460846,10.64481926
1040,0.963810755,0.290676496,9.902988854
1041,0.787343328,-1.03983685,9.314648052
1043,0.092278884,-0.669321839,9.767646032
1044,-1.203822944,0.568343976,10.63800982
1046,-1.259975422,-0.045146668,10.61919491
1047,-0.339975371,-0.858284406,10.20704638
1049,0.979434122,-0.26191498,9.606743259
1050,0.983125155,0.136435777,9.223889503
1052,-0.123354368,-0.218158306,9.025276389
1053,-1.400967139,0.149304555,9.660932984
1055,-1.601280272,-0.825790575,9.644869401
1056,-0.059611137,-0.014040987,9.779378726
1058,1.135762409,0.833048511,9.258832761
1059,1.220828528,0.356007493,9.025440609
1061,0.245108213,0.210835779,10.01131958
1062,-0.8911079,-0.112379689,10.4215778
1064,-0.858573891,-0.982089559,9.595249784
1065,0.111073905,0.310738142,9.372233824
1067,0.34011895,1.216681371,9.46374188
1068,-0.104491998,-0.66915016,9.094759101
1070,-0.49476028,-0.209619451,9.974660683
1072,-0.615839671,-0.554890727,8.985171567
1074,-0.217524005,1.192649652,8.883643379
1075,0.027121805,0.463228375,8.797146615
1077,0.015228418,-0.576323887,9.713058193
1078,0.136641313,-1.367582139,10.19969515
1080,-0.152898858,-0.773077522,9.953438486
1081,-0.04078941,0.734968701,9.442891835
1083,-0.234475713,-0.0820694,8.841463582
1084,-0.286768781,-0.596421329,9.982716489
1086,-0.074556684,-1.292279002,10.44743193
1087,0.068828037,-0.895763258,10.12286344
1089,0.131882631,0.443653927,9.972529911
1090,-0.180035142,0.377174976,9.613761381
1092,0.158259098,0.525732188,10.27713344
1093,-0.288559591,-1.147259278,10.06524698
1095,-0.258475579,-0.766583808,10.32309186
1096,-0.215939347,0.091374597,9.725291009
1098,0.124183841,0.68778751,9.976509521
1099,0.033790334,-0.836955232,9.531529636
1101,0.511931762,0.2722454,10.02582999
1102,0.119664827,-0.449562787,9.442815721
1104,-0.395544276,0.712149007,10.09962904
1105,-0.470398585,-0.300958687,9.400740464
1107,-0.053756085,0.6469144,9.871502371
1108,-0.167143132,-0.05225435,9.696679692
1110,0.144120822,-0.038447908,9.67740228
1111,0.112492541,0.032736657,9.143594955
1113,0.21115917,-0.099175252,8.923731988
1114,0.010669104,0.175004943,9.577524495
1116,-0.191809519,-0.250499083,9.448555831
1117,-0.145396087,0.015684194,9.474767889
1119,-0.134441559,-7.45E-04,9.354358025
1120,0.186422599,0.856169872,9.613367285
1122,0.128631203,-0.362182745,8.836950186
1123,0.210702003,-0.111660712,9.931776841
1125,-0.371690115,-0.875878154,9.629573377
1126,-0.444976107,0.847237231,9.398178433
1128,-0.476153977,0.130546123,9.196443371
1129,0.04204934,0.019262654,9.929433711
1131,0.16606877,-1.021234353,9.07139956
1132,0.16633004,0.648801099,9.60099484
1134,-0.038431381,-0.364197996,9.045772432
1135,0.044360937,0.712504069,9.629661534
1137,0.014704515,0.33126034,9.15732114
1138,0.272756995,0.265878851,9.649046228
1140,0.065136996,-1.562270397,8.943789281
1141,0.155241977,-0.560873039,9.144080926
1143,0.573562811,1.673448802,9.888905227
1144,0.710028643,-0.666377062,8.966440469
1146,0.506283408,-0.694560611,9.720295265
1147,0.266086497,0.552114216,10.21430704
1149,-0.286532782,-0.492880782,9.580507988
1150,-0.273181691,-0.332941139,9.799739207
1152,0.131719179,0.468241415,10.43248528
1153,0.662616443,0.264876387,9.872052034
1155,0.897989773,-0.209597666,9.543737057
1156,0.334657387,-0.404091146,9.650074325
1158,0.059229455,0.289695544,9.955677737
1159,0.003554049,0.551414403,9.413243723
1161,0.322302882,0.939679755,9.455914798
1162,0.758455906,-0.018914049,9.594760938
1164,0.559550769,-1.001916967,9.479113982
1165,-0.110711129,-0.372328269,9.365508853
1167,-0.940962558,0.098811913,9.088084834
1170,-0.971204676,0.012838235,9.792586713
1172,-0.125849749,-0.430714736,10.13221473
1173,0.599342036,0.366324065,10.21680251
1175,0.744604147,0.150690895,9.851756237
1176,0.063491772,-0.33844257,9.251513289
1178,-0.750670535,-0.64636336,9.064788891
1179,-0.70353795,-0.062317693,9.911517424
1181,-0.248702593,-0.277543227,9.879936161
1182,0.813928341,0.154446505,9.191707713
1184,1.06383695,-0.03501787,9.026188616
1185,0.342430805,0.418877276,9.365947797
1187,-0.775126526,0.419719575,9.828161258
1188,-1.067157167,0.301717058,9.695188282
1190,-0.485007873,-0.025665387,9.180781094
1191,0.125003944,-0.376429051,9.01147284
1193,0.068824123,0.377783021,10.3317593
1194,-0.461792304,-0.522708618,10.46268186
1196,-0.371791627,0.891165647,10.66272755
1197,-0.261147781,-0.40778691,9.821062626
1199,-0.095759339,-1.528999449,9.279579799
1200,0.010145647,0.285040719,9.829583357
1202,-0.024946147,0.412443606,9.810294024
1203,0.145930234,-0.649092952,9.841933736
1205,-0.320923418,-0.277087175,9.588621505
1206,-1.051684778,-0.34565538,9.711745789
1208,-1.158367525,-0.785385185,10.86949184
1209,-0.210351088,-0.813393987,10.34224566
1211,0.23296891,0.740007319,8.758388696
1212,-0.019127569,1.796969236,9.347695094
1214,-0.935330613,-0.620506228,9.598007262
1215,-0.607337577,0.250780145,10.18652479
1217,-0.040821876,0.824144581,9.636005764
1218,0.507983801,0.453574124,9.129486195
1220,0.142774952,-0.254357051,9.348068525
1221,-0.384320561,-0.619382833,9.930127056
1223,-0.875344775,-1.110951126,10.08308833
1224,-0.953397803,-0.058662826,10.02122422
1226,-0.266547126,0.988658023,9.566961706
1227,0.233720006,-0.014161958,9.21230602
1229,-0.003805169,-0.62501138,10.08637934
1230,-0.54466435,-0.134983491,10.36210351
1232,-0.61159273,0.382033411,9.084222561
1233,-0.304588786,0.019584158,8.906705407
1235,0.029369176,-0.26556893,9.814178384
1236,0.111291729,-0.082696219,10.17660559
1238,-0.016436302,-0.354833113,9.664195437
1239,-0.031769221,0.362068545,10.32508003
1241,-0.216987814,-0.440160646,9.827012884
1242,-0.335328896,-0.021721636,9.175649269
1244,-1.180956252,0.053009215,9.187766576
1245,-0.758820013,0.806897401,10.79295403
1247,-0.145335946,-0.809357943,10.37026472
1248,0.395706851,-0.088155724,9.436965501
1250,0.210022502,1.419017962,9.293337088
1251,-0.489624948,0.318991607,9.683044653
1253,-0.661614857,-0.139615213,10.34933167
1254,-0.128053397,0.123096027,10.10051716
1256,0.369344482,-0.620380625,9.272847047
1257,0.581394136,-0.38826873,9.641308993
1259,0.620035422,-0.317398399,9.634280761
1260,0.006766743,-0.437276082,9.577399004
1262,-0.536748782,0.250151187,10.08252406
1263,-0.204772855,-0.003607987,9.417304934
1265,1.182822591,0.621997424,9.127255223
1267,1.683999706,0.394080539,9.673388021
1269,0.485437075,-0.649452256,9.795236626
1270,-0.780936256,0.296793126,10.10978446
1272,-0.651702858,0.348809139,9.379070712
1273,0.057508347,-0.953487764,9.23847738
1275,0.807653587,-0.144506312,10.14925025
1276,0.508694393,0.003322249,9.415239845
1278,-0.263711707,0.343452872,9.351713078
1279,-0.979146395,-0.56336574,9.824586342
1281,-0.241913209,-0.335572708,10.00019991
1282,1.028967355,0.434833693,9.518841915
1284,1.471234869,-0.130492778,9.425518393
1285,0.592405238,-1.027923944,9.78767316
1287,-0.789334616,-0.774950272,10.11818351
1288,-0.588902718,-0.133763721,9.308895328
1290,0.119208814,0.200701283,9.418977445
1291,0.898263902,0.114677932,9.754230156
1293,0.984054773,-0.475097046,10.14558355
1294,0.221125072,-0.899484999,9.865237372
1296,-0.394517099,0.730404998,9.774946539
1297,-0.69069188,0.027863069,9.388684849
1299,-0.327234304,-0.121173573,9.774863188
1300,-0.085039596,-0.487173447,9.679183275
1302,0.156208459,0.009397854,9.330709108
1303,0.196541918,0.481222022,9.191513522
1305,0.30394252,0.719805292,9.56367959
1306,0.430643596,-0.33090337,9.14272066
1308,0.722609068,-0.081216878,9.494242081
1309,0.378340179,-0.703384423,9.568327117
1311,0.237969131,-0.441966503,9.686890662
1312,0.208282964,-0.106232773,9.544309912
1314,-0.380103093,0.010422603,9.555679165
1315,-0.36925892,0.57682117,10.53637879
1317,-0.585501807,-1.070546876,10.103686
1318,-0.021006381,-1.028367371,9.62833256
1320,0.13873675,0.216359968,9.643767181
1321,-0.044760452,-0.230588023,9.417169748
1323,0.226533397,-0.880745642,9.650511279
1324,0.205089403,-1.349569659,9.812389543
1326,0.438167061,0.298655372,10.31417668
1327,0.503440569,0.547980627,9.90647233
1329,0.186895638,0.095098587,9.641202167
1330,-0.147892518,-0.213363547,9.707604808
1332,0.143877185,-1.059640986,9.507684423
1333,0.976122156,-0.585993841,9.588770878
1335,0.540843041,0.852875949,9.350046532
1336,-0.86946636,0.902885924,9.339276714
1338,-1.629123679,0.941999108,10.92998495
1339,-0.589032232,-0.538678102,9.986538961
1341,1.369461808,-0.367598626,8.442678756
1342,1.848240268,0.115001714,9.082383973
1344,0.416283988,-0.344876639,9.465543148
1345,-0.963506939,-0.618729208,10.19638449
1347,-0.593297297,0.684509079,10.61418919
1348,0.922004641,-0.52593909,9.834967122
1350,2.181965166,-0.627679382,9.352901376
1351,0.946247622,0.760792757,9.777575406
1353,-1.273272881,0.692329638,9.723314161
1354,-2.391689392,0.669130216,8.862237596
1356,-1.468705019,0.36887377,8.956919582
1357,0.587563443,-0.537980626,9.089722021
1359,1.652087091,-0.410842716,9.667325705
1360,1.084497341,0.021284441,9.376276922
1362,-0.393151095,0.405983166,9.888008038
1364,-1.314066127,0.463522265,10.1083311
1366,-0.413429027,0.423063419,10.35708418
1367,1.450033957,-0.234426015,10.0300792
1369,2.071641248,-0.10744829,9.906628943
1370,0.583153881,0.455196607,9.529504811
1372,-1.113566906,0.050167486,9.247670907
1373,-1.485407763,0.637023683,9.281891968
1375,-0.898738246,0.209025319,9.299772377
1376,0.488250437,-0.185530024,9.201245771
1378,0.938252614,-0.643503009,9.591236477
1379,0.190486151,-0.212221653,9.674672256
1381,-0.359004994,0.382306961,9.355741599
1382,-0.434512789,0.853454855,9.752165218
1384,-0.062563533,-0.273216029,10.16326314
1385,1.089480369,-0.6164552,10.22513988
1387,0.965748327,-0.070665375,9.951741053
1388,0.300904429,-0.525316497,9.536465585
1390,-0.600500311,0.097524024,9.323724842
1391,-1.019804106,0.531719471,9.272341552
1393,-0.366828056,-0.333928067,9.017823035
1394,0.347598619,-0.461413095,9.973011945
1396,0.896260817,-0.19099586,9.914103889
1397,0.569631235,0.472327296,9.085471032
1399,0.053894272,0.099212392,9.112199513
1400,-0.326401511,-0.10472379,10.35052001
1402,-0.328559924,0.309330234,10.47121627
1403,0.331190788,0.592349349,10.08642485
1405,0.977735296,0.095691012,9.959335283
1406,0.613993628,-0.192290382,10.08233348
1408,-0.116256392,-0.361898793,9.605082503
1409,-0.253623008,0.089916289,9.799369258
1411,-0.623445603,0.280849547,10.30001038
1412,-0.409031329,-0.16343362,9.819088158
1414,0.032273701,0.752775428,9.343602807
1415,0.546724245,-0.062719115,8.798303079
1417,0.819263971,-0.847652186,9.062556642
1418,0.627486629,-0.103484444,9.086523032
1420,0.155424229,0.373733863,9.295634082
1421,0.051448524,0.250537869,9.858176499
1423,0.735563473,-1.031866919,9.867552947
1424,0.466352494,-0.961313433,10.21811415
1426,-0.15075205,0.59483954,10.57813431
1427,-0.413697985,-0.301538633,9.778213782
1429,-0.290210599,-0.07249902,10.0673579
1430,0.052083498,-0.354960813,10.23187391
1432,0.50518603,0.17083112,10.01212048
1433,0.671539908,0.4581564,9.534591588
1435,0.721586637,-0.010258781,9.43135313
1436,0.134607257,0.344716084,9.676954173
1438,-0.476215455,0.081281622,9.367136795
1439,-0.141085879,0.400727215,9.892267393
1441,0.060838,-0.764240444,9.943568336
1442,0.21268547,-0.940484888,9.302149645
1444,0.117163137,0.460001887,9.095386525
1445,-0.185313366,0.312436427,9.471778018
1447,-0.275619451,0.14737649,10.02850284
1448,-0.286094678,-0.493947918,9.914970834
1450,0.74171438,0.195750484,9.234051987
1451,0.956233623,0.042692761,8.789189319
1453,-0.043050253,-0.384539769,9.336067315
1454,-1.380311404,-0.61896265,9.917236183
1456,-1.461511063,0.277439382,9.929777294
1457,-0.267760435,-0.012478384,9.459235884
1459,0.731931156,-0.194075544,9.168467236
1461,0.257917492,-0.171044726,9.23575958
1463,-0.329249103,-0.022371313,9.510466943
1464,-0.566988,0.078568519,9.691126173
1466,-0.317326697,-0.302328799,9.837979228
1467,0.006640355,-0.694379227,9.016101065
1469,0.085235919,-0.187936657,8.699709166
1470,-0.375594869,-0.123505214,9.178381617
1472,-0.857111342,-0.767848474,9.50145866
1473,-0.50741858,-0.718916195,10.21492144
1475,0.276993783,-0.463685924,10.32870038
1476,0.529677333,-1.573788063,8.676315622
1478,0.072260828,0.700975926,8.73069954
1479,-1.057937456,-0.344188806,9.55019478
1481,-0.93471255,-1.088120939,10.38451511
1482,-0.326974553,-1.755063068,9.694048561
1484,0.401375015,-0.736439073,9.10841965
1485,-0.095170224,-0.745423406,9.037054223
1487,-1.120252927,-0.686686105,9.967226813
1488,-1.428361744,-0.687187912,10.44375767
1490,-0.819432177,-0.736328193,10.52907116
1491,0.091548938,-1.331679198,9.662623264
1493,1.283620631,-1.037139977,8.12094865
1494,0.914208698,-0.564986351,8.013354528
1496,0.046608601,-0.631306485,9.030252065
1497,-1.001049042,-1.083238469,9.610232711
1499,-0.973810361,-1.413009015,9.130528476
1500,0.014818307,-1.179533725,8.371098248
1502,0.586863876,-1.25920153,8.414377252
1503,0.36185315,-1.517024576,9.579224362
1505,-0.664826096,-1.695251133,10.2329021
1506,-1.295504296,-1.46429009,9.973072327
1508,-0.922403767,-1.850771361,9.298129738
1509,0.038113393,-2.838996833,8.552734529
1511,1.342361735,-2.500587602,9.365529934
1512,0.742188829,-2.651511214,9.756783011
1514,-0.552422144,-2.775592364,9.88300138
1515,-0.80266806,-1.945555094,9.899162988
1517,0.507736478,-1.33756286,9.762760812
1518,2.236898243,-1.880742053,9.804427693
1520,1.425970885,-3.012127257,9.893697291
1521,-0.395533785,-2.935839615,9.928529626
1523,-0.5968723,-2.116916508,10.02253502
1524,0.261626534,-2.325099815,10.09181995
1526,1.770952885,-2.055105505,10.18399435
1527,1.897943464,-2.636845356,9.844263583
1529,0.659831155,-2.110751081,10.00974188
1530,-0.220875185,-2.090758762,10.13050419
1532,0.517587033,-2.058341094,9.61708455
1533,2.195189112,-2.366198469,9.567958789
1535,1.96826104,-2.797131423,9.823329419
1536,0.486050117,-2.366721358,9.952414671
1538,-0.08684085,-1.486853642,9.759036763
1539,0.411439863,-1.862904056,9.677752308
1541,1.438662059,-2.711599629,10.0382321
1542,1.87693065,-2.248872762,10.13439513
1544,1.066570476,-1.866180719,9.924019061
1545,0.971178874,-1.7469363,10.00623071
1547,2.138658155,-2.722508203,9.667618968
1548,2.756448496,-1.883157571,9.819115
1550,1.533247127,-2.39432196,9.876779398
1551,1.124650238,-1.978456442,10.05838033
1553,2.526564808,-2.185499272,9.582573151
1554,3.149865427,-1.733471523,9.698134703
1556,2.099349507,-2.127334139,10.14125387
1559,1.653591288,-2.092938179,10.5212043
1561,2.45018345,-1.919297516,10.26506593
1562,3.107805152,-1.830508386,9.935805146
1564,2.649776374,-1.921994883,9.943178891
1565,2.468925532,-1.870989403,10.22140346
1567,2.67614683,-2.114579321,10.36221332
1568,2.86802003,-2.287710354,10.23073505
1570,3.02457484,-2.253608201,9.753448271
1571,2.292369194,-1.65583858,9.968318344
1573,1.601773638,-2.239718666,10.22341883
1574,2.709891846,-1.69068747,10.82217274
1576,3.323597852,-1.338693356,10.4391578
1577,2.566092224,-1.556803575,10.04726532
1579,1.537065714,-2.050245182,10.35771844
1580,1.980430988,-1.228861561,10.81297311
1582,2.583509216,-1.58423976,10.53496353
1583,2.057743036,-1.383410077,10.4180263
1585,1.269080862,-0.884899742,10.49351803
1586,1.63238837,-1.387256998,10.26238673
1588,2.530835374,-0.763261667,10.79484153
1589,2.549132376,-0.936918476,11.0566104
1591,2.342531122,-1.085151933,10.37092812
1592,2.536734028,-1.210848259,9.957465577
1594,2.568308474,0.221751047,10.67437429
1595,2.76659956,-0.345229332,11.03566801
1597,3.065883147,-0.592086219,10.07071924
1598,2.78424283,1.82837196,9.993236739
1600,2.536003766,1.180616018,10.42247348
1601,2.801317323,-0.428536299,10.86026976
1603,2.959968561,-0.038858998,11.27162128
1604,2.93063244,-0.478717207,10.84142783
1606,2.718102678,-0.398511933,10.32929936
1607,2.840488266,0.325156574,10.41880958
1609,2.924324508,0.115094925,10.92845429
1610,2.666775921,-0.422128476,11.39342614
1612,3.076171497,-0.586404433,11.44533577
1613,3.319320559,-0.11376855,11.00851459
1615,3.090547331,-0.611784078,10.55326493
1616,2.675553105,-1.176982765,11.19707169
1618,2.160661902,-0.763464187,11.56364336
1619,2.845412466,-0.852998726,10.86866883
1621,3.484540257,0.3553223,10.89510811
1622,3.180094826,-1.112918334,11.37633992
1624,2.054365265,-1.989573716,11.0617744
1625,2.278508825,-0.395486324,9.672450782
1627,2.586258848,0.579651261,9.278457893
1628,2.897938112,0.972073832,10.01587286
1630,4.961016274,-1.167667764,8.953293414
1631,3.388345556,-3.675016393,9.413021052
1633,-0.928565964,-0.535401314,11.53294971
1634,-2.10506246,0.571058919,10.87482362
1636,2.9028139,-1.020734218,9.803515919
1637,5.863539048,-1.126310258,12.36404516
1639,3.477581652,-1.948684557,13.76272454
1640,-1.890277559,-1.59978687,11.9786859
1642,-2.191897169,0.585180324,10.07670866
1643,2.453368499,0.42211038,8.935745948
1645,3.699023782,-0.834559029,7.816126222
1646,0.091436336,0.644762322,10.51826838
1648,-2.793254391,-3.115601656,13.15666552
1649,0.908225043,-2.330248298,14.60590041
1651,4.883951651,-1.967640373,13.39564464
1652,3.643832006,-1.933473104,12.95270155
1654,-1.299381236,-2.215063021,15.05820958
1656,-2.595118288,-2.195281916,16.04397422
1658,-0.047178788,-3.455268924,14.58626504
1659,0.83685073,-0.431112713,13.07318899
1661,0.433490505,0.194146665,11.27797098
1662,0.177428794,-0.797408607,12.19399779
1664,-0.704081217,-3.177533298,13.27939529
1665,-1.126126717,-2.25519159,11.72819414
1667,-1.075518889,-0.195519019,8.492591651
1668,-0.025769628,0.775264342,8.194056516
1670,2.0116571,-1.601254741,11.64754491
1671,1.046088028,-2.785695369,13.8300187
1673,-2.078503408,-0.556629719,11.79933505
1674,-1.531218035,2.002545058,8.390377777
1676,2.754653317,0.812363191,8.861698235
1677,3.646221401,-2.488892532,12.05083777
1679,0.395352147,-3.539165695,14.05204888
1680,-1.099475163,-1.439872213,12.22611031
1682,0.521132572,0.463724207,9.790078484
1683,2.012599229,0.142232544,9.475154777
1685,0.985303344,-1.958229713,11.55682657
1686,-0.205660044,-2.500360853,13.19080072
1688,-0.578280417,-2.791490955,11.98252396
1689,-0.345000159,-0.25779441,10.51353047
1691,-0.489807967,-0.98848049,9.563484116
1692,-0.407906095,-2.502551449,11.00292116
1694,-0.452862795,-2.774031783,12.40851627
1695,-0.825541378,-3.623101171,11.03193166
1697,-1.377348854,-1.177396866,9.632009777
1698,-1.239132936,0.489568586,9.984555618
1700,-0.580645577,-1.846072562,10.90644282
1701,-0.462426411,-3.099066751,11.68798844
1703,-1.493610925,-2.699079103,10.9473338
1704,-1.721478203,-0.830827279,10.4227118
1706,-1.179591698,-0.855845921,10.20340928
1707,-0.337386472,-2.100637588,10.81461532
1709,-0.363627582,-1.561931513,11.67529961
1710,-1.503270807,-2.25925385,11.06711095
1712,-1.917225805,-1.497206155,10.02490747
1713,-1.010085677,0.025025099,10.10848972
1715,-0.414354812,-0.478921099,11.09774736
1716,-1.387978606,-1.889643608,11.68721648
1718,-1.784146391,-1.706308058,11.21560211
1719,-1.271139961,-0.417028898,10.26152535
1721,-1.821071755,-1.050799837,9.743689662
1722,-2.037129159,-0.675843385,10.84867918
1724,-1.591331854,-1.388373914,11.11776548
1725,-1.163479797,-0.864513416,10.65369817
1727,-2.426368836,-0.261725263,9.666615222
1728,-2.809655974,0.318247763,9.341938085
1730,-1.986464511,0.338140182,10.20438867
1731,-1.811176247,-0.002572004,10.20446396
1733,-2.668698385,0.333698019,9.709740124
1734,-2.90283308,1.370760515,9.518622156
1736,-3.161666358,1.125815702,9.033373339
1737,-3.320152235,0.542064119,9.400003095
1739,-2.636124093,1.779628319,10.15129169
1740,-3.574278419,0.724088942,8.391455203
1742,-2.99906772,2.74692339,8.419314878
1743,-3.443365582,3.335207175,8.872914032
1745,-4.506628494,2.13967728,8.644458
1746,-3.486664458,2.700849436,8.851021903
1748,-3.168332042,3.162657704,8.230854703
1749,-3.747356255,3.246957131,7.483075294
1751,-4.072807409,3.898509046,7.90774581
1753,-3.992051574,3.745548232,8.734826783
1755,-3.595676777,3.091601114,9.346607477
1756,-3.239081474,2.588899313,8.781847573
1758,-3.149305888,2.68143756,8.033362001
1759,-3.393631983,3.727292756,8.137005574
1761,-3.786653411,4.048929489,8.92682869
1762,-3.468728057,2.634866156,9.511168452
1764,-1.946775053,1.674549476,9.825840679
1765,-1.815403586,1.484192306,9.61254182
1767,-2.60506113,2.532256676,8.802309322
1768,-2.786704994,3.913783727,8.941307621
1770,-2.375599978,3.151945006,9.200867264
1771,-2.141372692,0.778495913,9.287014871
1773,-1.649516055,0.060667243,9.548523965
1774,-1.184315786,1.681632129,8.931308547
1776,-1.851813731,2.932530635,8.89413427
1777,-3.011999638,2.279363409,8.789298392
1779,-2.498561865,1.13386928,8.942008151
1780,-0.661601389,0.449104811,8.911007737
1782,-1.269478712,1.492859145,8.758679443
1783,-2.795119117,2.892174001,9.422789411
1785,-3.016423119,3.313889522,9.111379395
1786,-2.007215933,2.629114056,9.171032599
1788,-0.522423643,1.68079551,9.795208594
1789,-2.177229751,0.373350517,9.703681566
1791,-2.20820476,1.766566145,9.350377565
1792,-2.237112516,3.229351597,9.276194424
1794,-2.147400401,3.478940787,9.028014074
1795,-1.952133331,2.516286203,9.097936119
1797,-1.471390469,1.377290516,9.439042564
1798,-2.029618105,1.101658719,9.29560994
1800,-1.378404191,3.010125002,9.382393513
1801,-1.781522959,3.623933116,9.100726815
1803,-1.637717291,3.340641227,8.675155632
1804,-1.585310673,2.127534772,8.570283612
1806,-1.43728167,1.531544998,9.464376523
1807,-1.219421916,2.081704791,9.952907136
1809,-1.733213449,2.199898214,9.224448713
1810,-1.12194712,2.452382145,9.189374241
1812,-1.631058991,1.634972851,9.491810416
1813,-1.047204881,1.4879635,10.03257973
1815,-1.23741089,1.720189536,9.465095687
1816,-1.223642078,1.766440938,9.217574201
1818,-1.384039547,2.019710814,9.551095863
1819,-0.711206239,2.403309239,9.931576121
1821,-1.156355298,1.856661635,9.266350335
1822,-1.236863091,1.738949181,9.306517003
1824,-1.611180875,1.94176062,9.531433178
1825,-0.802135242,2.271008357,9.943860955
1827,-1.063675993,1.26466163,9.413034117
1828,-1.21613146,0.697175177,9.249349148
1830,-1.724492714,1.2205082,9.718688683
1831,-0.993590269,2.587136989,9.833221272
1833,-0.935455909,2.561319267,9.308666881
1834,-1.327052131,1.602978488,8.984366759
1836,-0.208468269,1.480048752,9.957442356
1837,-0.179059492,1.043163653,9.882737628
1839,-1.143309868,1.416896759,8.6119038
1840,-0.968851142,2.909793031,8.57152046
1842,-0.858400189,2.615296299,9.269550801
1843,-0.561990544,1.270979523,9.517690287
1845,-0.172397522,0.076724512,9.341018225
1846,-1.031228222,0.284585202,9.438841676
1848,-1.208963547,2.116200219,9.829184709
1850,-0.889469582,2.759190854,9.373392209
1852,-0.105976405,2.279609571,9.029756322
1853,-0.386825911,1.112848869,9.37642558
1855,-0.977273383,0.724263021,9.949063436
1856,-0.338969078,1.813016183,9.435642637
1858,-0.547908812,2.437605553,9.116521444
1859,-0.846216722,1.486499999,9.257877982
1861,-0.196120749,0.704348029,9.768024681
1862,-0.308052297,0.034368769,9.856955746
1864,-1.367606213,0.748289891,9.452453158
1865,-1.477793635,2.174104949,9.246338801
1867,-0.135898922,2.993155169,9.324373676
1868,-0.109467509,1.832429337,9.625483478
1870,-0.04303375,-0.087693119,10.09690232
1871,-0.770679339,-0.689120863,10.11868883
1873,-0.092996255,1.086738354,9.094104456
1874,-0.590947162,2.462206912,8.308830594
1876,-0.841877141,2.705759978,8.800853474
1877,-0.835199924,1.774642076,9.906070303
1879,-0.370327914,0.321352698,9.822964055
1880,-0.178164523,-0.081423616,9.414496719
1882,0.013490762,1.126039178,9.715650125
1883,-0.284365348,1.828659779,10.27617159
1885,-0.569119671,0.88296709,9.320319541
1886,-0.074743897,-0.139142245,9.287156783
1888,0.207354991,0.368528205,10.2798319
1889,-0.941152714,0.959646304,9.696601791
1891,-0.734301473,1.869017925,9.292731686
1892,-0.108005132,2.107669223,9.495084963
1894,-0.276179193,1.199287133,9.804720106
1895,-0.435848492,0.131169655,9.174271164
1897,0.014196659,0.74909808,8.996533468
1898,0.087489974,1.78738637,9.254724673
1900,-0.807352865,1.884242101,9.374883264
1901,-0.128041843,1.76627529,9.529239748
1903,1.219317706,1.556035216,9.619114267
1904,-0.020307578,0.915428644,9.618278115
1906,-0.468695393,1.369814842,9.586698796
1907,-0.784696421,1.456418593,9.766294296
1909,-0.768861445,0.490964197,9.572301889
1910,0.465852515,0.056587114,9.896432656
1912,1.094083861,0.593659863,9.997355591
1913,-0.2510359,1.165257314,9.349735906
1915,-0.879194945,1.694999612,9.713220681
1916,-0.156679204,1.805623189,10.31173395
1918,0.572319357,1.057921942,10.3312686
1919,0.562140513,-0.147370305,9.417068457
1921,0.618124913,0.189135335,8.866390498
1922,-0.372239914,1.191711525,8.768452762
1924,-0.294165917,2.271380612,9.716629097
1925,0.076587977,1.9701385,10.66921791
1927,0.07273117,0.477944174,9.849672733
1928,0.692042561,-0.026529823,9.080184114
1930,-0.054245671,1.012250739,8.919523605
1931,-0.681445548,2.38841527,10.06946205
1933,0.17605071,2.173502609,10.06761851
1934,1.131841717,0.142135504,9.792914695
1936,0.563328941,-1.427523141,9.99039368
1937,-0.737034357,-0.311295118,8.883300062
1939,-0.40420035,1.827003764,9.098051215
1940,0.327857198,2.55221297,10.11932236
1942,-0.264299129,1.22389627,11.18280243
1943,0.565662437,0.397427843,9.960495438
1945,0.808981273,0.196769729,8.706592947
1948,0.71561449,0.274175367,8.912512856
1950,-0.17305083,0.868343471,9.813350348
1951,-0.090418492,1.913137851,9.990003724
1953,0.145812365,1.740049478,9.855146071
1954,0.112933019,0.434907202,9.509299977
1956,0.501108875,-0.354456283,8.914011535
1957,0.280659222,-0.014493017,8.440855644
1959,0.517235523,1.493669287,9.19378506
1960,-0.136849426,2.247408524,9.855207689
1962,-0.095955395,1.089349708,9.370884297
1963,1.132145133,-0.257614694,9.082155972
1965,1.009732084,-0.693010172,9.415263036
1966,0.079437953,-0.257041316,9.730826391
1968,0.50302685,1.569334325,10.02647891
1969,-0.478900117,2.18432533,8.941566641
1971,-0.297777839,2.077817478,9.225169776
1972,0.080079835,1.049332161,9.289409821
1974,0.803752779,-0.400169355,9.492172853
1975,0.630302594,-0.959478938,9.969799567
1977,-0.214361187,-0.355777607,10.1301243
1978,-0.031699267,0.939709912,10.16272861
1980,0.865450804,1.170435455,9.655348244
1981,0.625760682,-0.159220036,9.924636196
1983,0.080855398,-1.293805453,10.41202018
1984,-0.360810445,-0.835286254,9.710325673
1986,0.718056833,0.888400217,9.769946502
1987,0.187979052,1.583781333,9.563593168
1989,-0.443371515,0.677387652,8.658507064
1990,1.108215472,0.066587892,8.737732737
1992,1.24804757,-0.562640778,9.557798044
1993,0.722462744,-0.075651099,9.56467282
1995,-0.356709903,0.595068611,8.909583855
1996,0.762162737,1.35379119,9.355810429
1998,0.4580807,0.342318567,9.616026378
1999,0.047057197,-1.175105047,9.687624389
2001,0.762046303,-1.004611575,9.95647685
2002,0.663308282,-0.452998021,9.769894255
2004,0.407981398,-0.080681166,9.723431221
2005,0.186440068,0.031875031,9.866895045
2007,0.110318188,-0.68946262,10.02931427
2008,0.220614516,-1.112361237,9.935589894
2010,0.406744418,-0.516746937,9.911498815
2011,1.043820419,0.455829125,9.988052337
2013,0.913949035,0.066072367,9.422867021
2014,0.239239455,-1.042785956,9.210122497
2016,0.42847705,-1.289165599,9.678956105
2017,0.241281711,-0.81302674,9.635043447
2019,0.180118215,-0.19994193,9.46166963
2020,0.436816887,0.858277068,9.762692836
2022,0.096009604,0.625363527,9.957689314
2023,-0.209779602,-0.989313176,9.594476856
2025,0.677372681,-2.468763856,9.463943519
2026,0.683898071,-1.103127605,9.507859726
2028,0.298514671,0.451419497,9.1584888
2029,0.305996002,1.198695721,8.289473314
2031,0.802657571,0.862617547,8.986633977
2032,0.930372196,-1.502128112,9.541888579
2034,1.112329519,-2.363297839,9.655385941
2035,0.620180275,-0.821522732,8.800687246
2037,0.014356235,0.697924548,9.389040949
2038,-0.367000221,1.062865254,10.07667199
2040,-0.253530296,-0.349430425,10.13566741
2041,0.42461899,-2.067550225,9.417473988
2043,0.688029532,-1.534516446,9.445359157
2045,-0.828031914,-0.439813331,9.579871634
2047,-1.074511518,0.306061437,10.01755501
2048,0.601567291,0.574569635,10.45860942
2050,0.869777359,-0.425887846,10.04448978
2051,0.456182937,-1.940710938,9.620254988
2053,-0.488527827,-1.675807812,9.416229833
2054,-0.215615264,-0.00769686,9.942041667
2056,-0.087346673,0.780842376,10.09795981
2057,-0.412169965,0.48364595,9.540856275
2059,0.015127203,-0.247284427,9.052751143
2060,-0.394935052,-2.198050981,8.672769167
2062,0.597624686,-1.752527568,9.895853892
2063,-0.6562339,-0.524391169,9.987076428
2065,-0.715308132,0.664635648,9.605349473
2066,-0.492936375,0.647157059,9.15128433
2068,-1.300665137,-0.722767817,9.389939528
2069,-0.645824866,-1.328425167,10.22463942
2071,-0.031474775,-1.142479362,10.07890845
2072,-0.005273457,-0.30774791,9.804312187
2074,-0.197711961,0.17906179,10.11111746
2075,-1.105529422,-0.608590666,10.12558174
2077,0.071991639,-0.651937337,10.04737244
2078,0.719406095,-0.487187113,10.04921443
2080,-1.031232893,-0.738896346,10.02034729
2081,-0.600371131,-0.429256422,10.14911105
2083,-0.102579101,-0.213249866,9.859117764
2084,-0.278744719,-0.443452997,9.560751105
2086,-0.99485542,-0.783614182,9.533798884
2087,-0.983224028,-0.789005951,9.191084792
2089,0.47695186,-0.545361486,9.069988472
2090,-0.027858116,-0.620220511,9.168972255
2092,-0.160958772,-0.069725806,9.836669796
2093,-1.510669921,-0.41511049,9.276457459
2095,0.351468252,-0.559098364,9.339059446
2096,0.233683459,-1.135837832,9.766779197
2098,-0.332634881,-0.80695868,10.4639525
2099,-0.465565329,-0.562311118,9.95644467
2101,0.803897074,0.079213895,9.559046303
2102,0.238548491,0.097592426,10.15573598
2104,-1.740943923,-0.922897883,10.30617266
2105,-0.229158969,-0.697182849,10.3278151
2107,0.189772939,-0.220807148,9.805194321
2108,-0.405681818,-0.08575457,10.09396516
2110,-1.004692151,-0.4778578,10.27241544
2111,-0.910821453,-0.325822608,10.13447967
2113,-0.914731972,-0.410836844,9.623912245
2114,-1.751213415,-0.69772622,9.352237268
2116,0.309651916,-0.130741274,10.06558864
2117,0.078761906,0.132200851,9.811057879
2119,-1.015565322,0.055144813,9.558029625
2120,-0.927978143,0.26282717,9.279932874
2122,-1.027114914,-0.058387868,8.647879299
2123,0.064738616,-0.412147414,8.932831583
2125,-0.064041186,-0.575373604,9.634394831
2126,-0.197632553,-0.387324146,10.24558666
2128,-0.578661333,-0.051465503,9.71005594
2129,-0.001655705,-0.185339996,9.062444273
2131,0.279000043,-0.404059569,9.079257714
2132,-0.767829951,-0.664695348,9.633770989
2134,-0.308137817,-0.243810045,10.53674094
2135,-0.627843535,-0.052550426,10.46781847
2137,-0.453714866,-0.24700588,10.14504926
2138,0.28078758,-0.751952114,9.691332371
2140,0.60576555,-0.7691718,9.9644522
2142,-0.215475107,-0.71173063,10.44544643
2144,0.581391675,0.362716565,11.16550867
2145,-0.682622231,-0.088435063,9.772544211
2147,-0.258316015,-0.333619713,9.073153192
2148,0.439093022,-0.285962633,9.377661781
2150,-0.329713761,-0.678172418,9.765211517
2151,-0.208109079,-0.20963662,9.968557332
2153,0.045005867,0.526024004,9.84656809
2154,-0.500341693,0.772792888,9.276223145
2156,0.117743073,0.320077475,8.912445327
2157,0.431728355,-1.405396457,8.846922503
2159,0.014501548,-1.31677807,9.720234163
2160,-0.957551749,-0.248078542,9.685730624
2162,-0.698930002,1.024125289,9.209974773
2163,0.169014614,1.051188728,9.41817171
2165,-0.459325111,-0.841142658,9.930767409
2166,-0.503886686,-1.973533659,10.21874482
2168,0.001812362,-1.003948789,8.989797125
2169,1.14002341,0.228956765,9.075453023
2171,0.242764703,0.160747672,10.1474957
2172,-0.85614771,-0.380262878,10.66051524
2174,0.186504962,-0.778125584,10.02634507
2175,-0.252513607,-1.298575915,9.342897631
2177,0.827509983,0.083313686,9.800171487
2178,0.651872965,0.855055085,9.869892665
2180,0.140755992,0.492293736,9.85318232
2181,-0.719437584,-0.560529486,10.03744187
2183,0.893700527,-0.755599988,10.41722175
2184,0.348265946,-0.902574896,9.77949173
2186,0.2815228,-0.178807017,9.88239419
2187,0.161567823,0.433535305,10.72268429
2189,0.003753674,-0.251033396,10.94637574
2190,0.307270916,-1.019796517,9.985005424
2192,1.32709016,-0.793204071,9.134617705
2193,0.881901166,-0.195116391,9.082538677
2195,0.154041917,0.477383348,9.56888165
2196,-0.076138113,0.474921436,9.626661251
2198,0.817825353,-0.658557153,9.30569747
2199,1.006931803,-1.816498901,8.743098361
2201,0.672480734,-0.942049917,8.761924901
2202,0.13091822,0.176202105,9.03041376
2204,0.106025708,0.805200405,9.899348763
2205,0.489368019,0.035050814,10.14232326
2207,0.277769941,-1.650381283,9.334128496
2208,0.718133878,-1.421922064,9.168545631
2210,1.120105219,0.353472666,9.741993498
2211,0.976178805,1.156459429,10.36347239
2213,-0.130191437,-0.327922546,9.408187205
2214,1.268159147,-2.10564355,9.014535511
2216,0.91225947,-1.403596534,9.319126647
2217,0.680230302,0.23709352,9.864031154
2219,0.216218516,0.877795201,10.0625486
2220,-0.081164555,0.340778041,9.850074709
2222,0.812809281,-0.889930733,9.583731155
2223,1.277420222,-1.364053033,9.605254747
2225,0.879235597,-0.151225641,9.307370275
2226,0.947371482,0.901245899,10.01607078
2228,0.60600254,0.508801392,9.817335527
2229,0.908647036,-0.426475217,9.488830905
2231,1.684966829,-1.220564949,9.374328761
2232,0.963369267,-0.744885355,9.247506431
2234,1.344806701,0.378789566,9.871480044
2235,0.815735047,0.379030448,9.881163334
2237,1.656673585,-0.413636205,10.06847474
2239,1.925260649,-1.692949438,9.735674222
2241,1.207143439,-1.52226252,9.470656713
2242,1.247379556,-0.408053652,9.723852532
2244,1.060491564,0.148548615,9.985234738
2245,1.5685512,-0.121023891,10.04761442
2247,0.977161132,-1.008328103,9.368703102
2248,1.113008759,-1.252319732,9.234020545
2250,0.991179157,-0.279688007,9.45263537
2251,1.203462478,0.533012387,9.744163395
2253,1.290756392,0.559673439,9.601484771
2254,0.804509205,-0.226658912,8.984288787
2256,0.822013273,-1.276218745,8.738577672
2257,1.668082567,-0.763520531,9.302064506
2259,1.070756348,-0.01026489,9.550237875
2260,0.885704068,0.438232954,9.622560075
2262,0.597841468,0.367541806,9.706476262
2263,1.080128866,-0.32408976,9.637899218
2265,1.306006182,-0.650308308,9.748552054
2266,1.128714716,-0.423481028,9.811039774
2268,0.858285825,0.289534273,9.784999353
2269,1.296163082,0.51954536,9.665630748
2271,1.551064226,0.281688239,9.386192675
2272,1.422475473,-0.354755,9.304195403
2274,0.654920824,-0.533760929,9.599256946
2275,0.951995578,-0.114771896,9.812333771
2277,1.828316788,0.388246876,9.808606814
2278,1.303769346,0.399615453,9.500338257
2280,1.134874737,0.142999176,9.329064879
2281,0.877253548,-0.14636188,9.260927984
2283,1.330441108,7.94E-04,9.532735151
2284,1.314705718,0.234575631,9.681271831
2286,0.751250426,0.136707972,9.548627144
2287,0.947151533,-0.183456039,9.641826843
2289,1.290987147,-0.28387315,9.835088734
2290,0.726773386,0.027226858,9.70758361
2292,0.797822182,0.323600017,9.656001087
2293,0.958020979,0.398162304,9.567979733
2295,1.070510716,0.009704056,9.534117937
2296,0.95786249,0.02531623,9.616879257
2298,1.059213761,0.458594449,9.581570023
2299,1.411455067,0.860746136,9.688308964
2301,1.266783878,0.539229999,9.551497618
2302,1.188328308,0.038867058,9.720207217
2304,1.01658418,-0.120158572,9.713297165
2305,0.632364665,0.283494082,9.438518869
2307,1.328861491,0.970706066,9.489398785
2308,1.439847841,0.953863648,9.409905533
2310,1.287453148,0.469886369,9.483094609
2311,0.720615885,-0.001966837,9.496402799
2313,0.34115251,0.02019983,9.705608657
2314,0.994432855,0.494921039,9.883951145
2316,1.078402603,1.10024454,9.705997823
2317,1.029545413,0.933918366,9.538508627
2319,0.79351086,0.337239708,9.455426324
2320,0.754109149,-0.130028542,9.687639899
2322,0.674048468,0.162180646,9.864559229
2323,0.827547659,0.68163605,9.688340474
2325,1.013306272,0.87039707,9.510889157
2326,1.1198665,0.467136494,9.602877404
2328,0.716260133,-0.060425698,9.902008736
2329,0.574081739,-0.069918993,9.964861039
2331,0.522392283,0.36505484,9.89547095
2332,0.996141705,0.723617412,9.770035305
2334,1.038428799,0.853152963,9.752985588
2337,0.712299025,0.590495207,9.724186311
2339,0.260527125,0.346213526,9.69711158
2340,0.476825742,0.605214175,9.620589047
2342,0.927900765,1.035937218,9.273257489
2343,0.774839764,1.552120485,8.929857219
2345,0.855440254,1.504174569,9.2376086
2346,0.791734081,0.710253828,9.451032947
2348,0.477692571,0.047225084,9.440112477
2349,0.569793469,0.039066603,9.361104188
2351,0.288274383,0.716673123,9.238569426
2352,0.54162881,1.322740464,9.485571292
2354,0.827630778,1.126979945,9.859016054
2355,0.295044158,0.499968208,9.754447716
2357,0.355056577,-0.112023006,9.728535227
2358,0.579457093,-0.081436943,9.62918215
2360,0.901356406,0.670683737,9.789230916
2361,0.887512639,1.06963359,9.886911337
2363,-0.148564067,0.749361783,9.627114447
2364,0.069592703,-0.06986642,9.757778624
2366,0.22090136,-0.126849311,9.86757549
2367,0.425231849,0.417252884,9.872285401
2369,0.405512529,1.158256453,9.835229513
2370,0.135946491,0.981911574,9.546818448
2372,0.621934221,0.388138893,9.833590235
2373,0.425567691,-0.075844425,9.946682023
2375,0.268069901,0.166223179,9.887700783
2376,0.308821646,0.659315063,9.878612515
2378,0.258830103,0.955629744,9.727609366
2379,0.38650245,0.650305258,9.804579432
2381,0.521427418,0.415721849,9.692940081
2382,0.539293181,0.337331968,9.497051435
2384,0.673876334,0.709156891,9.157542258
2385,0.423948429,0.900294789,9.310644771
2387,0.428023059,0.502891912,9.228076945
2388,0.162901846,0.243476892,9.58020273
2390,0.076591621,0.18129156,9.731499707
2391,0.200971679,0.417172337,9.882498702
2393,0.307220057,0.419728061,9.786330648
2394,0.230377404,0.311557506,9.761223896
2396,0.140412153,0.061140065,9.859187858
2397,0.165517761,0.44949502,9.967055399
2399,0.309183885,0.575842006,9.803615193
2400,0.457567748,0.535806278,9.588427029
2402,0.169081463,0.251696313,9.552098045
2403,0.206376118,0.155745424,9.641234882
2405,0.286749989,0.261116428,9.76517375
2406,0.53893954,0.550543702,9.865511872
2408,0.139687577,0.597674684,9.703499811
2409,0.372500227,0.486254777,9.46276764
2411,0.303709506,0.489558996,9.484608426
2412,0.390466098,0.229295217,9.788496132
2414,0.520388692,0.149677865,9.741962138
2415,0.729225275,0.109158897,9.40928511
2417,0.578968163,0.326543646,9.393122386
2418,0.592950129,0.647090991,9.713081935
2420,0.2307526,0.758994427,9.979360385
2421,0.402601884,0.286888561,9.818652376
2423,0.807266819,-0.125508418,9.679398229
2424,0.346533913,-0.385911842,9.484867366
2426,0.548613485,-0.03152862,9.709165307
2427,0.184683704,0.405514154,9.638950999
2429,0.262330563,0.660972449,9.740714927
2430,0.232128184,0.256858232,9.5681935
2432,0.436253488,-0.373666648,9.370598168
2434,0.428597607,-0.515127384,9.588429796
2436,0.024620589,0.115990542,9.749789768
2437,0.119429636,0.962510847,9.967409659
2439,0.500920655,1.112118564,9.791167649
2440,0.263802723,0.220242361,9.570260781
2442,0.504157393,-0.559995926,9.529275976
2443,0.436301814,-0.442248569,9.792747289
2445,0.575799689,0.369110262,9.855723084
2446,0.029024778,0.8878802,9.699128402
2448,0.016856912,0.746411108,9.37942146
2449,0.703642698,0.179416579,9.4556389
2451,0.305335799,-0.177026653,9.592742784
2452,0.138518658,0.038963596,9.827742065
2454,-0.192767199,0.549822028,9.651463137
2455,0.28475214,0.604882595,9.542073644
2457,0.119910467,0.004389922,9.632992023
2458,0.02410026,-0.557687747,9.765185364
2460,-0.03457702,-0.289331952,9.929071842
2461,0.032236627,0.113152816,9.760237652
2463,0.191839415,0.433536116,9.678899679
2464,-0.008814452,0.282676166,9.66476315
2466,-0.15092571,0.00178647,9.731754524
2467,-0.154462457,-0.145861788,9.889706145
2469,0.135521446,-0.050941685,9.937036297
2470,-0.187252455,-0.135942882,9.660151137
2472,0.199918657,-0.326085323,9.655899303
2473,0.012389079,-0.369944343,9.633064544
2475,-0.095252415,-0.136152503,9.948896126
2476,0.124688575,0.141239516,9.843811084
2478,0.327800592,0.169451309,9.132821082
2479,0.406616111,-0.032937581,8.994178355
2481,0.43753829,0.286849119,9.649983586
2482,0.29934714,0.585356039,9.629278463
2484,0.208351376,0.620605522,9.153684319
2485,0.62668572,0.329193424,8.944415977
2487,0.523411994,-0.058122673,9.113161348
2488,0.37800586,0.072710598,9.729985144
2490,0.28595861,0.621505859,9.896682106
2491,0.049129299,1.005411461,9.794977129
2493,0.118856111,0.886023023,9.570730427
2494,0.446779771,0.434842752,9.647048811
2496,0.501750912,0.273614351,9.897895809
2497,0.401354347,0.394044476,10.07177552
2499,-0.213203906,0.605272049,9.779785437
2500,0.068663186,0.733963754,9.813848897
2502,0.560861524,0.597191479,9.926444912
2503,0.911545677,0.251243897,9.703631241
2505,0.734971886,-0.08028748,9.643501792
2506,0.320273977,-0.284437201,9.409184249
2508,0.40689173,-0.259318772,9.334839868
2509,0.890837835,0.287256305,9.500310804
2511,0.587092257,0.522087787,9.633025265
2512,0.653402617,0.765132026,10.40661336
2514,0.342230453,0.208907732,10.04509852
2515,0.533854021,-0.13410387,9.881527145
2517,0.428588479,0.065052433,9.814017412
2518,-0.132700745,0.376841093,9.939546961
2520,0.003872242,0.788242531,10.05822905
2521,0.160842386,0.650165909,9.7491798
2523,0.337631908,0.461869471,9.704874395
2524,-0.134271058,0.361780652,9.327580002
2526,0.186416378,1.072130381,9.043959673
2527,0.454633167,1.13060902,9.207042328
2529,0.175551047,0.267223888,9.317038412
2531,-0.052697421,-0.396797751,9.568730249
2533,0.444843575,0.063503943,9.963448155
2534,-0.196741442,0.167483112,9.791286501
2536,-0.366564316,0.542224243,9.987771091
2537,-0.43217788,0.414559758,9.933316765
2539,-0.044227272,0.265861124,9.849116025
2540,0.230916766,0.208329,9.778301537
2542,0.430260411,0.549378505,9.907213926
2543,0.085270698,0.865291068,9.790635596
2545,-0.083686786,0.6024958,9.559336378
2546,0.134552852,0.401232156,9.564887808
2548,0.210379618,-0.16644345,9.435972068
2549,0.263235296,-0.51643434,9.437959623
2551,0.06731806,-0.056674987,9.476997663
2552,0.185453923,1.015569873,9.998114953
2554,-0.871068418,0.422917114,9.69489844
2555,-0.69374208,0.22627068,9.682636122
2557,-0.117028627,0.346081952,9.654190163
2558,0.034283404,0.465436158,10.02306134
2560,-0.163900686,0.38170987,9.900156571
2561,0.425470363,1.194102103,9.753404406
2563,-0.059231872,0.295865846,8.935054758
2564,0.349478547,0.167362715,9.369876041
2566,-0.058013588,0.101988468,9.645946051
2567,-0.307820375,0.281076996,9.765218687
2569,-0.685275761,0.679696989,9.674849052
2570,-0.362045276,1.258485124,9.985038776
2572,-0.477008567,0.453042259,9.832084628
2573,0.017733965,-0.183072853,9.800401526
2575,0.031167752,-0.152104566,10.09957779
2576,-0.113972922,-0.085725685,10.06014819
2578,-0.132083523,0.571858508,9.92756631
2579,-0.204102371,0.512286871,9.297325394
2581,-0.612338822,-0.174329499,9.488258918
2582,-0.781469574,0.196281212,10.21265886
2584,-1.725327164,-0.044814819,10.08562239
2585,-1.159815112,0.876081592,10.01903287
2587,-1.102309848,0.736123539,9.351535784
2588,-0.705084258,-0.070100902,9.4184514
2590,-0.521556731,0.04693465,9.881385694
2591,-0.994879431,0.144576271,9.815891086
2593,-1.170481055,0.052171888,9.520084213
2594,-1.064141006,0.331683023,9.412352078
2596,-0.845920998,0.517381728,9.630020769
2597,-0.480375798,0.157191413,10.02864823
2599,-0.315041758,-0.109573525,10.30006782
2600,-0.738039852,-0.379530127,9.853948937
2602,-0.943239114,-0.335573465,9.46777751
2603,-0.191158014,-0.121057238,9.349252911
2605,0.224555733,0.429291618,9.963717431
2606,-0.121913905,0.151601175,10.07791501
2608,-0.184849495,-0.126495739,9.564761055
2609,-0.014381771,0.135387822,9.501016795
2611,0.270227162,-0.140219057,9.271191782
2612,-0.073341902,-1.10515189,9.042966953
2614,0.184904201,-0.387338726,10.15000768
2615,-0.007774097,-0.301949864,10.72904325
2617,0.268932696,-0.544021723,10.19239305
2618,0.480401414,-0.938967949,9.554982909
2620,0.635122568,-0.872974013,8.988012599
2621,0.640939185,-0.77225036,9.513155325
2623,-0.284821379,-0.077369394,10.3442779
2624,-1.689154192,-1.065694999,9.951736338
2626,-0.127299988,-0.0814825,10.55172932
2628,0.235742507,0.147144865,10.52523334
2630,-0.134395948,-0.529862982,9.968544245
2631,0.139035218,0.418456642,10.12206846
2633,-0.220712299,0.170197672,9.562976825
2634,-0.4592204,0.092623953,9.243538298
2636,-0.274830853,0.216954639,9.624096479
2637,-0.711996608,-0.438403935,9.765516733
2639,-1.238875935,0.372206649,10.19287156
2640,-1.275294181,0.098792687,9.541641366
2642,-0.169760381,-0.723993029,9.015126116
2643,0.766287625,0.214368418,9.901443071
2645,0.234328345,-0.174052706,10.23758337
2646,-1.384015079,-0.896498674,10.11136948
2648,-1.599151852,-0.233768945,9.927625983
2649,-0.635117238,0.289466444,9.555547175
2651,-0.064536832,-0.670769618,8.624943964
2652,0.657367954,-0.099418536,9.911442173
2654,0.352684999,-0.904674192,9.731473554
2655,0.361381391,0.46515856,10.09001817
2657,-0.222236185,-0.392076735,8.967504326
2658,-0.286259362,0.241206002,9.273005345
2660,-0.045093511,0.507837699,10.94767259
2661,-0.692351884,-1.19142247,10.38106981
2663,-0.750831163,-0.123314613,10.16183739
2664,-0.645199137,0.233910086,9.300088145
2666,-0.551041028,-0.021629137,9.182400347
2667,-1.325859285,-0.623057369,9.400450356
2669,-1.315439345,-1.353891058,9.006577985
2670,-1.12104631,-0.938904416,9.909874039
2672,-1.481486397,0.41722746,9.767236273
2673,-1.232863869,1.529697688,8.929235596
2675,-0.242389201,0.326398245,9.404243014
2676,0.600224044,-0.806743671,10.85601372
2678,0.654408012,-1.820164965,10.49286364
2679,0.283522164,-0.364547159,9.736949456
2681,-0.886850443,0.478505122,9.521200268
2682,-1.772133529,0.664495174,10.78835383
2684,-1.030873597,-0.437630631,11.51688816
2685,0.74210685,-0.730182131,10.12446977
2687,0.573751,-1.61333901,7.715577526
2688,0.325115468,0.937904462,9.557389891
2690,-1.558390658,-0.272095715,10.25683725
2691,-2.391589571,-1.890778076,10.43902389
2693,-0.963928674,-0.913333171,11.03576719
2694,0.252094152,-0.964748078,9.099336193
2696,0.183696697,-0.245336024,8.313797681
2697,-1.441083582,-0.365087687,9.984548003
2699,-2.579529789,-0.811121688,11.3815062
2700,-1.652843493,-1.240853278,10.12635019
2702,0.291393252,-1.293874372,8.608723089
2703,1.516574549,-0.991011462,9.029842512
2705,0.730155108,-1.21102117,9.852284487
2706,-1.270945919,-1.834781336,10.21038357
2708,-2.020401626,-1.294416145,10.50521398
2709,-1.116205902,-0.462363141,10.09873958
2711,0.383134304,-1.31583314,8.632577599
2712,0.98253027,-0.29228395,9.541883545
2714,-0.195592573,-2.780909823,9.392048523
2715,-0.825691871,-0.957725968,11.06789999
2717,-0.732838873,-0.997143959,9.895192757
2718,0.129464041,0.040270509,9.065632089
2720,0.680674569,0.795120325,9.982764336
2721,0.298470536,-2.05822332,10.01525305
2723,-0.43570704,-2.226021095,9.723601635
2726,-0.622580632,-0.953900076,8.806214703
2728,-0.312378397,-1.258299649,7.880388554
2729,0.078491317,-0.856187645,9.661442132
2731,-0.501765544,-1.887247993,10.16523434
2732,-0.329955508,-0.570839898,10.50540831
2734,-0.08270503,-2.072788716,8.987927476
2735,0.304761749,-1.663335949,8.755370924
2737,-0.393470135,-1.282641261,9.302856895
2738,-0.953299658,-2.168516793,10.06744143
2740,-1.320038155,-2.160748866,11.04406379
2741,-0.437418506,-2.597367891,9.513551807
2743,0.809538898,-1.069308353,8.859868128
2744,0.9639445,-1.961105069,8.944370583
2746,0.004684795,-2.337239721,10.58555301
2747,-1.030782492,-2.147583547,11.11784664
2749,-0.541503356,-0.950204054,10.22863616
2750,0.861008287,-1.373708441,8.919389215
2752,1.451244412,-2.622589328,8.918494029
2753,0.903841566,-2.811210923,10.19255721
2755,-0.279535326,-1.962846148,10.86233341
2756,-0.919006725,-1.990550607,10.48935522
2758,-0.165491234,-2.771388732,9.266481492
2759,1.134107544,-1.515219314,9.126914227
2761,1.074351034,-1.557808884,9.872996199
2762,-0.152009122,-1.976491426,10.42906431
2764,-1.059842936,-2.837781871,9.706070522
2765,-1.220534394,-2.202355604,8.839871238
2767,-0.323645216,-0.61328418,9.133190659
2768,0.999652933,-1.187934803,9.225337467
2770,1.143179182,-2.562793006,9.719170835
2771,0.227981843,-2.545047347,9.263671701
2773,-0.980208203,-1.150877489,9.317456162
2774,-0.717069706,-0.948664732,9.059547432
2776,0.488815856,-1.402577225,9.862373863
2777,0.90735793,-1.763991303,10.36086974
2779,0.822849924,-2.097926932,9.370512207
2780,0.402609768,-0.380798389,9.46124909
2782,-0.305110665,-0.761270359,9.394935786
2783,-0.772354503,-0.614060924,9.959204434
2785,-0.416409107,-1.016988908,9.930707478
2786,0.031413229,-1.003854729,9.555939092
2788,0.388346945,-0.56629414,9.809718111
2789,0.262231913,-0.837689904,9.723549924
2791,0.095628675,-0.828493817,9.363048114
2792,-0.402192891,-0.974516698,9.728822562
2794,-0.312404132,-0.942263216,9.990277585
2795,-0.080140209,-1.064645361,9.875709779
2797,0.179007903,-1.028259153,9.316196968
2798,-0.169182533,-0.077383513,9.819527687
2800,-0.175914598,-0.754400855,10.13869716
2801,-0.140451506,-1.478510861,9.833601257
2803,0.00293971,-0.77886486,9.978511384
2804,-0.116822407,-0.624617618,9.749087428
2806,-0.303190372,-0.74637811,10.0300066
2807,-0.047933886,-0.852245344,10.18403484
2809,0.142281361,-0.802731846,9.824788271
2810,0.562489766,-0.755895271,9.662391914
2812,0.72229719,-0.290308931,9.909554548
2813,0.233665078,0.074745801,9.868725314
2815,-0.004604769,-0.367767981,9.439535921
2816,-0.208273517,-0.291603126,9.702666043
2818,0.056720164,-0.729860743,9.797244771
2819,0.755499487,-0.10625825,9.437205418
2821,0.844290003,-0.07098536,9.112742653
2823,0.532552246,-0.787270599,9.200070256
2825,0.262515467,-0.079195546,9.893268278
2826,0.713418352,0.019959569,9.651688881
2828,0.957742596,-0.169218822,8.977812718
2829,0.884000832,0.314793942,9.274424156
2831,0.814498894,0.107046716,9.575422281
2832,1.058392449,-0.023582353,9.734903442
2834,0.856231165,-0.119140833,9.936889516
2835,0.789451243,-0.395497975,9.715623851
2837,1.23703531,-0.007037582,9.535959393
2838,1.417525179,-0.307729787,9.361981891
2840,1.143656073,-0.243592128,10.05333432
2841,1.013939371,-1.048171001,10.09957038
2843,0.707606831,-0.398260893,10.03229034
2844,0.726849579,0.052199193,9.713635161
2846,1.412226964,0.059559349,9.245924718
2847,1.977567869,-0.155832361,9.648649172
2849,1.580349975,-0.286519759,9.931027103
2850,1.331179881,-0.849718982,9.609271652
2852,1.004710181,-0.206399087,9.648832306
2853,1.266440058,-0.330955132,9.607705439
2855,1.767820666,-0.174304874,9.400263267
2856,2.060616871,-0.074760596,9.391713211
2858,1.895884333,-0.09856819,9.566365168
2859,1.318344134,0.274912854,9.570477749
2861,1.311446694,0.115692611,8.981953931
2862,1.472403955,0.340019705,9.038812892
2864,1.60470159,0.256576727,9.571090246
2865,1.788483962,-0.208225453,9.614237084
2867,1.303263662,0.150022525,9.545114538
2868,1.315019328,-0.117650745,9.191135385
2870,1.644430847,0.124765255,9.449426041
2871,1.589740495,0.493179229,9.749421585
2873,1.801599313,-0.096093737,9.281397558
2874,1.6165327,0.269284356,9.321328424
2876,1.337613628,0.084315123,9.481789006
2877,1.407198219,0.097060622,9.671851353
2879,1.526052337,-0.030437129,9.827403809
2880,1.348773348,-0.441977838,9.856669306
2882,1.390250675,-0.189137354,9.963769031
2883,1.409575747,0.008759672,9.843467651
2885,1.600134311,-0.184210222,9.754314745
2886,1.575966301,-0.052843943,9.907780379
2888,1.593802445,-0.202254063,9.937874729
2889,1.738857689,-0.332091979,9.888714689
2891,1.466253313,0.324622782,9.697626734
2892,1.480396084,0.434126321,9.601896434
2894,1.657814735,0.31841095,9.551900965
2895,1.576650066,0.004039482,9.534254383
2897,1.523214509,0.16646282,9.550939618
2898,1.452450745,0.36576286,9.64228315
2900,1.448879118,0.474777597,9.412137969
2901,1.550781016,0.153929959,9.356128831
2903,1.239695022,0.368021795,9.655262261
2904,1.415544515,-0.188330409,9.821875802
2906,1.094613805,0.23487353,9.802306674
2907,1.143175385,-0.320161688,9.547046319
2909,0.964596489,-0.098313783,9.594539547
2910,1.044822546,-0.371982964,9.805329078
2912,0.810091315,-0.257697063,10.02693731
2913,0.638612202,-0.61022254,9.796236634
2915,0.409085313,-0.378542438,9.569535497
2916,0.503109675,-0.5583028,9.700046886
2918,0.428766078,-0.236350382,9.968565409
2920,0.467325101,-0.317952986,9.860937742
2922,0.268827715,-0.132794377,9.730643066
2923,0.00161961,0.059807797,9.711514154
2925,-0.047989295,0.256360353,9.678827598
2926,-0.433097446,0.689890562,9.889027703
2928,-0.67830369,1.303448698,9.921590055
2929,-0.66374821,1.144964224,9.375648619
2931,-0.509408285,1.340053937,9.139887168
2932,-0.432050541,1.412719449,9.562935233
2934,-0.704224359,1.422853944,9.730071598
2935,-0.959106052,1.338595413,9.383308579
2937,-0.709500204,1.157951754,9.036328109
2938,-0.426599261,1.346309264,9.51835421
2940,-0.151597475,1.502091654,9.657360455
2941,-0.344949887,1.539004898,9.499394193
2943,-0.742909219,1.30431987,9.325558821
2944,-0.867742376,1.261968403,9.575383396
2946,-0.540914126,1.016072669,9.76765849
2947,-0.460027615,1.338730356,9.79995419
2949,-0.580404113,1.350345934,9.529353284
2950,-0.518043172,0.969670488,9.351038986
2952,-0.387076857,0.623811295,9.671572774
2953,-0.289788882,0.831184956,9.880445472
2955,-0.322636268,0.951255709,9.608739188
2956,-0.645697841,1.009390077,9.23411831
2958,-0.597226234,0.768442421,9.35669969
2959,-0.200208108,0.55174652,9.565062178
2961,-0.077373062,0.77804046,9.755751758
2962,-0.29621274,0.880415764,9.671441014
2964,-0.702446483,0.844949491,9.220115117
2965,-0.583974677,0.510030329,9.326110902
2967,-0.2388514,0.31289145,9.646442763
2968,-0.094776606,0.441530917,9.878166769
2970,-0.21356048,0.425919311,9.491933738
2971,-0.619666516,0.357207911,9.232712027
2973,-0.608496059,0.18896121,9.389367435
2974,-0.233923947,-0.05385858,9.65300723
2976,-0.114897345,0.044877718,9.788579594
2977,-0.313221091,0.198574402,9.646490467
2979,-0.457636651,0.142020372,9.394400748
2980,-0.385075526,-0.055047203,9.476933139
2982,-0.30639891,-0.153011637,9.806865359
2983,-0.221457224,-0.03039177,9.921794387
2985,-0.233904652,0.033591987,9.709541445
2986,-0.293106743,0.137492781,9.571624905
2988,-0.246577542,0.127825605,9.611507801
2989,-0.43945369,0.288675677,9.947489019
2991,-0.413236449,0.345164849,9.985408739
2992,-0.310176785,0.331774919,9.681956489
2994,-0.215388378,0.0977287,9.593853511
2995,-0.387145794,0.312023576,9.756812747
2997,-0.488135027,0.405078209,9.771168665
2998,-0.450124009,0.154864333,9.643337711
3000,-0.226912389,-0.14060149,9.540941826
3001,-0.523638491,0.288396431,9.638533256
3003,-0.617564912,0.504854951,9.631276314
3004,-0.532566802,0.279726046,9.619478804
3006,-0.459898616,0.044567049,9.607274922
3007,-0.549346231,0.300071692,9.637983388
3009,-0.707497763,0.633100175,9.742004055
3010,-0.547207051,0.341512051,9.618206463
3012,-0.376429801,-0.144878691,9.517685213
3013,-0.511074773,0.088463056,9.5096667
3015,-0.875599017,0.4288396,9.68533152
3017,-0.84395563,0.46722907,9.666631957
3019,-0.720172583,0.287705634,9.558916658
3020,-0.474987327,-0.203763396,9.36437596
3022,-0.755389063,0.191299485,9.676197673
3023,-1.005763233,0.575611827,9.912966229
3025,-1.011819469,0.428519028,9.782792039
3026,-0.627554648,0.037992409,9.530377451
3028,-0.493342955,-0.159036541,9.403154631
3029,-0.571352,0.248819656,9.642920444
3031,-0.728545361,0.559285852,9.787586252
3032,-0.623143546,0.43313871,9.61975625
3034,-0.337527169,0.04252863,9.574561994
3035,-0.242337914,-0.111110795,9.425768372
3037,-0.187779904,-0.007219094,9.635048212
3038,-0.316779487,0.256189586,9.762103584
3040,-0.298105606,0.293872231,9.780571107
3041,-0.422673218,0.419289903,9.757146822
3043,-0.333612224,0.309324603,9.64572385
3044,-0.116369311,0.05826035,9.615345375
3046,-0.122369589,0.209579738,9.612056104
3047,-0.142147228,0.131325127,9.613457112
3049,-0.287471079,0.293865028,9.742349703
3050,-0.160015879,0.199361413,9.650117267
3052,-0.30529786,0.332708547,9.664596002
3053,-0.40801219,0.351734381,9.682265309
3055,-0.325800841,0.325049872,9.588137365
3056,-0.257551518,0.295059686,9.49382103
3058,-0.171011862,0.120888553,9.479253092
3059,-0.225365873,0.135095193,9.497509513
3061,-0.488308113,0.26216372,9.60690657
3062,-0.562255364,0.481737336,9.620930097
3064,-0.298155607,0.325646823,9.646309729
3065,0.043150378,-0.009931095,9.483958179
3067,-0.134228857,0.055359701,9.538476658
3068,-0.418908988,0.416830329,9.68211532
3070,-0.456186622,0.505409838,9.833505696
3071,-0.235850974,0.62327455,9.833356249
3073,0.006729881,0.429349563,9.609209912
3074,0.054909484,0.314899228,9.420224464
3076,-0.135837667,0.247081575,9.630717087
3077,-0.606544806,0.636950991,9.850853027
3079,-0.424193284,0.693477419,9.678942852
3080,-0.019619801,0.556759491,9.358658391
3082,0.274335507,0.413199262,9.574100971
3083,-0.041417733,0.698807681,9.740368985
3085,-0.307988536,0.68871753,9.64282683
3086,-0.321708185,0.479733806,9.607437937
3088,-0.269841,0.435964488,9.723769387
3089,-0.302956119,0.884601699,9.680403912
3091,-0.067746495,0.575889721,9.57084338
3092,-0.102287196,0.422953779,9.515011441
3094,-0.481576609,0.679187552,9.720994576
3095,-0.427279422,0.858137126,9.605328845
3097,0.114971871,0.504446824,9.363054138
3098,-0.21781522,0.768333904,9.627406691
3100,-0.488924249,0.639463244,9.742432073
3101,-0.52076162,0.602849312,9.685620785
3103,-0.317020999,0.71440414,9.513874042
3104,0.103906585,0.801748123,9.573543398
3106,-0.023440606,0.763677672,9.688814602
3107,-0.259083618,0.492676116,9.631499061
3109,-0.392055918,0.401915789,9.650455396
3110,-0.529594453,0.525801736,9.745767102
3112,-0.083304234,0.650477549,9.517996552
3115,0.044061216,1.027659412,9.576160645
3117,0.006302728,0.611847639,9.653700356
3118,-0.551603026,0.395322511,9.689682052
3120,-0.756194439,0.386352637,9.688768785
3121,-0.279369071,0.3444908,9.365843352
3123,-0.239625668,0.929406857,9.713623236
3124,0.056831973,0.728947355,9.63819028
3126,-0.340230642,0.61431838,9.694227402
3127,-0.43262561,0.445212786,9.71240821
3129,-0.161968468,0.369213628,9.56034303
3130,-0.116727132,0.918464312,9.469823298
3132,-0.094463109,0.983360174,9.586915851
3133,0.024599764,0.687377669,9.796557249
3135,-0.29948389,0.430232097,9.811909352
3136,-0.464824866,0.384431527,9.465809663
3138,-0.459166149,0.649205106,9.412236474
3139,0.230405879,0.605992704,9.625897795
3141,0.432198661,0.604447061,9.780581763
3142,-0.220069645,0.852744757,9.687092256
3144,-0.247128852,0.435575185,9.373607664
3145,-0.183850564,0.164441901,9.446409682
3147,-0.260459993,0.501320608,9.663700452
3148,-0.017127233,0.823689544,9.498938564
3150,0.205856866,0.670487241,9.420917929
3151,-0.255411868,0.438502797,9.415073991
3153,-0.783795695,0.301323401,9.429497834
3154,-0.575066147,0.203427986,9.390390253
3156,-0.361925928,0.524248843,9.590397457
3157,0.042087766,0.529902736,9.706688271
3159,-0.1796216,0.645241832,9.710020896
3160,-0.316907584,0.293344079,9.586798501
3162,-0.563127953,0.399796172,9.781781987
3163,-0.258010915,0.351268988,9.857981081
3165,-0.207981346,0.80453284,9.890351284
3166,-0.439970884,0.730415381,9.909202352
3168,-0.533718916,0.721713648,9.796094556
3169,0.007901401,0.682750996,9.583957201
3171,-0.290079174,1.139789049,9.67825627
3172,-0.254964345,1.231881431,9.703352036
3174,-0.171701091,0.833027461,9.768574582
3175,-0.574946253,0.820065446,9.868034397
3177,-0.353479588,0.849866497,9.602206596
3178,-0.26789411,1.450121534,9.668906444
3180,0.139480156,1.37516444,9.552191281
3181,-0.886387732,1.15832341,9.956164598
3183,-1.075278036,0.813528753,9.907706116
3184,-0.79145261,0.705252843,9.57642409
3186,-0.81508908,1.31634109,9.573361181
3187,-0.092415739,1.222409044,9.371398817
3189,-0.769607576,0.997855573,9.621799789
3190,-1.063025256,0.471127358,9.830786117
3192,-0.832695654,0.331169639,9.476090248
3193,-0.703110998,0.920441635,9.511121319
3195,-0.435656761,1.345379338,9.381634412
3196,-0.766824858,0.986693026,9.408551262
3198,-0.953837905,0.457707937,9.670208817
3199,-0.947376665,0.205626187,9.810979952
3201,-0.559444274,0.20824416,9.533862553
3202,-0.757334721,1.172110063,9.375433716
3204,-0.575247341,1.191088096,9.510422363
3205,-0.53209675,0.747984051,9.771261114
3207,-0.822079238,0.288411869,9.980601145
3208,-1.115840299,0.475427945,9.755925983
3210,-0.803990756,0.9201722,9.493940205
3212,-0.416540493,1.502746219,9.744026706
3214,-0.367458548,1.06604361,9.906241533
3215,-0.84894154,0.755617865,10.09536102
3217,-0.928839743,0.571892655,9.855423642
3218,-0.754801201,0.78147154,9.601093936
3220,-0.492291374,1.409672942,9.516666188
3221,-0.372156905,1.557892251,9.802273185
3223,-0.485520829,0.928863975,9.985553931
3224,-0.660658466,0.600105383,9.850841069
3226,-1.020703944,0.985792607,9.560329329
3227,-0.87911479,1.231953608,9.467633127
3229,-0.652164783,1.058230995,9.773962712
3230,-0.681993029,0.517418685,9.841410338
3232,-1.112434156,0.474382702,9.86345226
3233,-1.014559064,0.478794868,9.572642471
3235,-0.964569921,0.777566773,9.624783753
3236,-0.672287674,0.854227476,9.447221613
3238,-0.956689248,0.66426205,9.680340552
3239,-0.757619939,0.198167354,9.699969469
3241,-1.046278445,0.311566922,9.870035029
3242,-1.0536656,0.676591198,9.586822641
3244,-0.799709392,0.71183683,9.538783473
3245,-1.076242133,0.678889817,9.851841849
3247,-1.008403275,0.399136157,9.821643561
3248,-0.676533756,0.433598457,9.708277698
3250,-0.244910492,0.682160388,9.785384014
3251,-0.596710088,0.797337299,9.830559136
3253,-0.839047413,0.371157297,9.357687069
3254,-0.89894414,0.040929508,9.481133425
3256,-0.604471686,0.059462839,10.00661583
3257,0.096998352,0.518914578,9.887525281
3259,-0.167820676,0.643842628,9.732063054
3260,-0.5074816,0.107789573,9.620751704
3262,-0.52655227,-0.313550307,9.826411025
3263,-0.30083031,-0.311327285,9.807872225
3265,-0.450977095,0.391158249,9.692406333
3266,-0.722821558,0.491512861,9.769704924
3268,-0.591860844,0.173814515,9.489954277
3269,-0.316361599,-4.91E-04,9.658521425
3271,-0.388952613,0.244835031,9.794868782
3272,-0.401514623,0.35285392,9.831111992
3274,-0.754232143,0.048268436,9.696180817
3275,-0.782597265,-0.272468645,9.469412431
3277,-0.616450215,-0.22308306,9.558896979
3278,-0.270043767,-0.203246042,9.799181909
3280,-0.579707912,0.10351715,10.0464673
3281,-0.541129477,0.013375658,9.586505223
3283,-0.992488529,-0.103367405,9.431226213
3284,-0.614462427,-0.282109023,9.662161505
3286,-0.54102,-0.195717892,9.978388777
3287,-0.569230051,-0.0592695,9.901612403
3289,-0.653832038,0.009915719,9.551945967
3290,-0.639008579,-0.196416272,9.410975339
3292,-0.592496455,-0.157713146,9.625839962
3293,-0.525061865,-0.140511824,9.972927433
3295,-0.309894655,-0.020120692,9.924665743
3296,-0.349946009,0.023255056,9.528455486
3298,-0.647772092,0.226901574,9.668992454
3299,-0.571765447,-0.001778202,9.673733777
3301,-0.51052733,-0.153347272,9.924523276
3302,-0.374564775,-0.147313945,9.852568543
3304,-0.423694256,-0.108062649,9.689497208
3305,-0.563334796,-0.069244046,9.499577048
3307,-0.485734515,-0.131336564,9.659388371
3309,-0.399149827,-0.15058899,9.843302269
3311,-0.076814682,-0.364552117,9.658682197
3312,-0.471077095,-0.147349613,9.798869019
3314,-0.463831296,-0.239205048,9.709632204
3315,-0.390369673,-0.172152022,9.688360857
3317,-0.149896354,-0.314678427,9.678643802
3318,-0.416759326,-0.194384078,9.829533393
3320,-0.365384908,-0.24771584,9.758444285
3321,-0.331250313,-0.254222676,9.714394173
3323,-0.184411438,-0.289171077,9.651114342
3324,-0.093351601,-0.345177349,9.67152675
3326,-0.177277875,-0.346026561,9.841234599
3327,-0.03231445,-0.463502853,9.749016179
3329,-0.119714544,-0.471395277,9.625476477
3330,-0.007815305,-0.51514471,9.643207329
3332,-0.094130061,-0.40639907,9.785845323
3333,-0.013754296,-0.432767492,9.731547867
3335,-0.157319487,-0.37701097,9.720744423
3336,0.077827865,-0.452114566,9.677552937
3338,-0.268019465,-0.372452452,9.67995551
3339,0.16974259,-0.575301175,9.553805368
3341,-0.014227184,-0.278357621,9.749669178
3342,0.246892443,-0.399888205,9.619485567
3344,0.075430153,-0.424803738,9.662913654
3345,-0.157392322,-0.421732658,9.641270555
3347,-0.087911015,-0.401153652,9.613598193
3348,0.398369434,-0.562326772,9.541666607
3350,0.107098909,-0.36621051,9.664786217
3351,-0.048015999,-0.377615572,9.765718918
3353,-0.226386063,-0.41675671,9.828213579
3354,-0.059546327,-0.644814109,9.66409871
3356,-0.149560767,-0.403841578,9.605183958
3357,-0.083814971,-0.422662194,9.651866356
3359,-0.178576478,-0.164657534,9.769346198
3360,-0.081034645,-0.281856144,9.646250981
3362,-0.301742214,-0.2231424,9.784634946
3363,-0.277115057,-0.476098135,9.681068155
3365,-0.176299063,-0.367946643,9.812344555
3366,-0.409498607,-0.21054471,9.865697722
3368,-0.187202728,-0.234589013,9.614517259
3369,-0.350594396,-0.128708993,9.593763281
3371,-0.515511259,-0.260627108,9.747885426
3372,-0.678620895,-0.346359215,9.906880269
3374,-0.501373423,-0.515086407,9.710048224
3375,-0.786282172,-0.329872434,9.738881811
3377,-0.956700769,-0.317905313,9.870188839
3378,-1.01689606,-0.318527125,9.886956028
3380,-0.858548809,-0.580498332,9.704958614
3381,-0.840806541,-0.63387356,9.68489384
3383,-0.95656061,-0.749010985,9.683736023
3384,-1.215896751,-0.569178996,9.830009221
3386,-1.184042092,-0.519106815,9.893545656
3387,-1.163039515,-0.511037913,9.878034444
3389,-0.86104926,-0.653219079,9.935541973
3390,-1.104661848,-0.528855457,10.14141093
3392,-1.146101281,-0.573051524,9.995022592
3393,-1.204330224,-0.612200471,9.932031814
3395,-0.854729223,-0.771083966,9.877308813
3396,-0.920823316,-0.719677103,9.900476498
3398,-0.955466832,-0.728971677,9.814078761
3399,-0.7283925,-0.98381804,9.636603719
3401,-0.621259994,-1.010665274,9.776036566
3402,-0.646697214,-0.849995253,9.973384978
3404,-0.624950833,-0.643369656,9.792356697
3406,-0.603622324,-0.533228323,9.758311417
3408,-0.733991091,-0.882542189,9.787620844
3409,-0.569954258,-1.168292088,9.739688202
3411,-0.877438286,-0.735739868,9.99862898
3412,-0.786721188,-0.484217935,9.937496248
3414,-0.458026777,-0.147856304,9.966447918
3415,-0.310232986,-0.162658297,9.91703783
3417,-0.703236277,-0.448581916,9.894203986
3418,-0.983449457,-0.922182498,10.05093641
3420,-1.018920011,-1.013379215,10.23797897
3421,-0.638622563,-0.678804547,10.05627741
3423,-0.552942232,-0.138562895,9.995994028
3424,-0.46738541,-0.381073202,9.944728448
3426,-0.711549852,-0.769144581,10.16108872
3427,-0.707335619,-1.040161463,10.00961454
3429,-0.631278197,-0.800077598,9.755586829
3430,-0.256101441,-0.511018807,9.625860203
3432,-0.269826589,-0.569621614,9.847683742
3433,-0.347667658,-0.879380128,9.954497388
3435,-0.439479379,-1.353179877,9.404121599
3436,-0.509193983,-1.351637303,9.546161009
3438,0.042670496,-1.110110171,9.74546516
3439,0.38400602,-0.546572205,9.922588207
3441,0.15848108,-0.418033729,10.00430126
3442,-0.684975569,-0.920756099,9.729911204
3444,-0.706362318,-1.613125281,9.403158132
3445,-0.240513265,-1.571548435,9.413126702
3447,0.522141812,-1.13493018,9.474789517
3448,0.439410637,-0.328186415,9.805066779
3450,0.42670494,-0.482315137,9.390288189
3451,-0.028015865,-0.994163617,9.716641683
3453,0.126567063,-1.493269485,10.28833186
3454,1.015686301,-1.414437129,10.00995437
3456,1.099811158,-0.747745209,9.835190398
3457,0.633167628,-0.229326975,9.455372068
3459,0.306083172,-0.486151029,9.298416155
3460,0.568151623,-0.866085386,9.671184557
3462,0.737563455,-0.748124977,9.708195391
3463,0.406639735,-0.280435668,9.824519222
3465,0.636821495,-0.532109566,9.793567799
3466,0.103536576,-0.810069696,10.12737734
3468,0.678880522,-1.421560132,9.886095116
3469,1.358391008,-1.261582318,9.485952441
3471,0.889212356,-0.878548485,10.24098794
3472,0.928527061,-0.656017937,10.00935347
3474,0.709909985,-0.827647812,9.754499985
3475,1.532365928,-1.305559744,9.387957758
3477,0.981365078,-1.421352029,9.919247066
3478,1.122513696,-1.133394846,9.65855047
3480,0.907295098,-0.695565695,9.609476427
3481,1.212095707,-0.809888603,9.528371557
3483,1.101929547,-1.074716381,9.726622967
3484,1.266384552,-1.210128173,9.561550117
3486,1.181870847,-1.001044932,9.288933588
3487,0.72991615,-0.771810792,9.687284213
3489,1.420494409,-0.575030246,9.385910194
3490,1.365474343,-0.702782196,9.210769127
3492,0.682410427,-0.981229252,9.491412436
3493,1.188198198,-1.165111357,9.239938202
3495,0.942912239,-0.757311583,9.365205245
3496,0.380843151,-0.083975066,9.45862083
3498,0.624441147,-0.039176466,9.169665248
3499,0.991512515,-0.526498717,9.428791594
3501,1.195000989,-1.034006949,9.649740721
3504,0.828325685,-0.92395579,9.620815859
3506,1.507011852,-0.505115041,9.256609825
3507,0.893715505,-0.291265075,9.791052262
3509,1.373774901,-0.52970312,9.823583921
3510,1.206923434,-0.588460127,9.960591206
3512,1.325313811,-0.762102359,9.863205167
3513,0.990409815,-0.785908673,9.618067528
3515,0.687456136,-0.699337705,9.862417074
3516,1.257475866,-0.454097263,9.695815111
3518,1.684468222,-0.17334,9.766427569
3519,0.624675011,-0.312400897,10.24316455
3521,0.839156054,-0.45404228,9.931491125
3522,1.555028746,-0.226348951,9.552358709
3524,1.998207509,0.178707574,9.311837524
3525,0.593856167,0.184090744,10.06971204
3527,0.091106886,0.308053427,9.975887648
3528,0.623866505,0.485645857,9.691264255
3530,0.821810788,0.607569543,9.292169311
3531,0.239054212,0.359362597,9.608156707
3533,0.23558175,0.442197762,9.77157127
3534,0.321272169,0.875983411,9.816356954
3536,0.129765131,1.422754022,9.314677766
3537,-0.161673551,1.464233421,9.464713373
3539,0.210960166,1.617875523,9.742150989
3540,0.219290007,1.47307944,10.11401912
3542,0.41392955,1.272493402,9.939109689
3543,0.347549709,1.09796557,9.791786265
3545,0.586206092,1.196133621,9.879897769
3546,0.346129208,1.202231598,10.12378242
3548,-0.356114495,0.994729172,10.51670151
3549,-0.622417944,1.328559649,9.780033751
3551,-0.54412911,1.501213334,9.273556347
3552,-0.040709498,1.782965888,8.959518704
3554,-0.639394899,1.138567628,9.759387313
3555,-0.132363144,0.855185938,9.831886612
3557,0.295983293,0.926720552,9.398639001
3558,-0.172244153,0.689119155,9.527261126
3560,-0.434369629,0.816420288,9.310587613
3561,-0.603154209,0.764048589,9.59537403
3563,0.708031319,1.202286533,9.431158295
3564,0.804950656,0.994986278,9.793388991
3566,-0.238373992,0.210152928,9.926081274
3567,-0.033045613,0.533813914,9.216480969
3569,-0.004884126,0.927658157,9.071262782
3570,0.1492627,1.679877694,9.630997444
3572,-0.126495955,1.570782973,10.24775583
3573,0.31342893,1.254704658,9.852970101
3575,-0.121252068,0.243270576,9.570864951
3576,-0.576025479,0.735893674,9.331498974
3578,-0.599887989,2.313227844,9.491583432
3579,-0.684349795,2.228503517,9.624372111
3581,-0.447319861,1.440568582,9.571290196
3582,-0.073085508,1.070816911,9.554124002
3584,-0.03308613,1.43112293,9.479229363
3585,-0.54073473,1.635974739,9.993521306
3587,-0.187107066,1.787411813,9.872683698
3588,0.286678115,1.156352745,9.658007309
3590,0.164838224,0.494064451,9.670314107
3591,-0.433995497,0.456302277,9.587188185
3593,-0.107944729,1.026092522,9.55186669
3594,-0.109069196,1.503134331,9.612005486
3596,-0.721987999,1.876179386,9.659543783
3597,-0.963473742,1.893384407,9.616813677
3599,-0.782827684,2.184571579,9.489030185
3601,-1.176832633,2.152197358,10.24330193
3603,-0.222567811,2.615804775,9.823169963
3604,-0.308838665,1.98329198,9.383128289
3606,-0.799851972,1.253733341,10.11344914
3607,-0.058587217,2.436547207,9.91453085
3609,-0.297508029,2.559066423,9.804386436
3610,-0.680063133,1.612560789,9.996598232
3612,-0.034148315,1.416183864,9.611779211
3613,0.713304223,1.978099898,9.527233606
3615,-0.132978907,1.351925596,9.96284456
3616,0.222045677,1.126361695,9.565549501
3618,0.895218485,0.971390269,9.77648251
3619,0.297960649,0.719733616,10.15586337
3621,-0.636660095,0.967255011,10.06212301
3622,0.392688069,1.295554959,9.499897483
3624,0.304108969,0.260204628,9.802321541
3625,0.914870338,0.157335218,9.47370856
3627,0.833053801,0.485023235,9.379920388
3628,0.560491054,0.724541792,9.708425891
3630,0.59370613,0.956668451,9.833449089
3631,0.381230561,1.213521908,9.78479629
3633,-0.164094307,1.246707427,9.597835834
3634,-0.18784259,1.327263336,9.468070872
3636,0.405667731,1.503534998,9.511898373
3637,0.224160917,1.07409588,9.452644117
3639,0.171424073,1.045339447,8.745812967
3640,-0.782546753,0.913789694,9.522118126
3642,0.099914923,1.875262861,9.421521918
3643,0.044446749,1.843088182,9.923074591
3645,0.3062,1.389031236,9.712873323
3646,0.459224396,1.267304367,9.632070077
3648,0.197083067,0.951505556,10.00525613
3649,0.387528276,1.01283783,9.763095258
3651,-0.52853203,0.927896585,10.55636812
3652,0.313220435,1.725940595,10.09706024
3654,0.411480569,1.45282567,9.479535588
3655,-0.644678279,0.652900701,9.5376791
3657,-0.132406367,1.40072685,9.059603703
3658,-0.086267185,1.641049006,9.473318842
3660,0.193355745,1.532009743,9.782241051
3661,-0.885568936,0.70179312,9.933785895
3663,-0.153091293,1.300874358,8.953848393
3664,-0.623811038,1.206415355,9.917656196
3666,0.087347594,1.345106972,9.903817699
3667,0.010745391,1.081000209,9.853164141
3669,-0.464016724,0.084366406,9.912859037
3670,0.313626706,0.473182397,9.447855463
3672,-0.347819717,0.870405687,10.05501489
3673,-0.233072311,1.621486958,9.83267778
3675,-0.071262384,0.962828492,10.12312379
3676,0.038156213,0.495564768,10.3359933
3678,-0.26743165,1.190417285,10.15140697
3679,-0.676735127,2.185659288,10.22686987
3681,-0.797703152,1.613374904,10.3343898
3682,0.145080663,0.453056459,9.962906576
3684,0.111025216,0.649110878,10.16620606
3685,0.444053103,2.139809191,9.595649746
3687,-0.311913436,2.000396822,10.21664179
3688,0.446850836,0.774928974,9.719568652
3690,0.036713613,-0.114864258,9.690528602
3691,-0.256574739,0.432445533,9.443275732
3693,-0.585449708,1.217904299,9.51731764
3694,0.036985734,0.84332029,9.258626446
3696,-0.189335522,0.299501333,9.933970439
3698,-0.081345699,-0.136054799,9.87178403
3700,-0.412866609,-0.023460212,9.940524471
3701,-0.188442072,0.872951324,9.291263901
3703,-0.226925399,0.681877669,9.516464159
3704,0.278516324,0.470663944,9.97949185
3706,0.509112492,0.989911092,9.909169482
3707,-0.295273416,1.45186813,10.32228317
3709,0.475630163,1.728623696,9.409190788
3710,0.867727688,1.334027091,8.794489347
3712,-0.294416129,1.462952748,9.387772722
3713,-0.363912127,1.502197334,9.704744157
3715,0.613694612,1.030699612,9.87680075
3716,0.661438118,1.050137932,10.11047151
3718,0.253142684,1.424351065,9.389812619
3719,0.178946999,1.327686481,9.297299231
3721,0.044093633,0.559605256,10.21809499
3722,0.087617331,-0.042984649,10.42254502
3724,0.925956162,0.859922885,9.235448444
3725,-0.644321709,1.418134983,9.900634072
3727,-0.486179434,0.779852998,9.979108806
3728,-0.432386857,0.313658616,10.31939817
3730,0.13428227,0.700952709,9.774759154
3731,0.26571993,1.458332141,9.664372393
3733,-0.036911827,1.035835957,9.831120297
3734,-0.790001241,0.337907426,9.792402164
3736,-0.593883119,0.338361428,9.486140315
3737,-0.071134838,1.194470995,9.551382281
3739,0.165041225,1.395497315,10.10936574
3740,-0.003597225,0.717119456,10.06581079
3742,-0.817645478,0.385192948,10.34531788
3743,-0.169948685,0.750107936,9.814069031
3745,1.104439342,1.099226397,9.435593494
3746,-0.225012624,1.291171433,10.51135428
3748,0.528802595,-0.28361081,9.498354114
3749,-0.784937765,0.121779294,10.19205113
3751,-0.650927142,0.805379952,9.530904919
3752,-0.197423513,1.39473767,9.809763141
3754,-0.890759477,1.212317751,10.75442941
3755,-0.051901821,0.001300896,9.426688782
3757,-0.61503266,0.069728733,9.16029211
3758,-0.29361532,1.413945368,8.955757095
3760,-0.769742688,1.455718998,10.13859376
3761,0.265218757,-0.044203427,10.0680656
3763,0.060401804,-0.4945397,9.857166153
3764,-1.039002891,0.782310993,9.746674819
3766,-0.314649171,1.910961072,9.61263869
3767,0.555622696,0.912270711,9.609412111
3769,0.187968456,-0.157316071,10.407155
3770,0.064661637,-0.422430288,9.837286361
3772,-0.711636568,0.451141338,9.510111955
3773,0.03252886,0.952266133,9.451033392
3775,0.244044589,0.83833006,10.05685418
3776,-0.292855427,0.279004716,10.36702944
3778,-0.87519971,0.059219998,10.04171548
3779,-0.489797177,-0.056285471,9.851415033
3781,0.034517895,0.202982128,9.4787882
3782,-0.145847529,0.145947599,9.435175683
3784,-1.09563794,-0.332398865,9.593950743
3785,-1.745380736,-0.754135599,9.997364042
3787,-1.072984332,-1.160760203,9.168727233
3788,-0.707846843,-0.415137413,9.477898219
3790,0.343518922,0.552142306,9.927460564
3791,1.33943475,0.020811406,9.864124154
3793,-0.29706023,0.122861712,10.76314817
3795,0.520883107,-1.08028726,9.957236918
3797,0.086302285,-0.828518204,10.10234388
3798,0.362744327,-0.124471046,9.617524376
3800,-0.097734878,0.764621797,10.46720969
3801,0.903567475,-0.559456707,9.814439248
3803,0.132381018,-0.846308055,10.69591914
3804,0.312713268,-0.878981445,10.08229273
3806,0.231447397,0.523438281,9.762490937
3807,1.121009074,0.650970401,9.010339372
3809,0.61825164,0.020814577,9.578418876
3810,0.354156657,-0.712336856,9.925752714
3812,0.49022291,-0.55152852,9.778271633
3813,0.89027515,-0.400632276,9.583341855
3815,0.80524589,-0.618799092,9.353614287
3816,-0.169632156,-0.685631198,9.692550435
3818,-0.750349607,-0.91886982,9.838714461
3819,-0.893765762,-0.79061932,10.10503221
3821,0.522474069,-1.108044044,9.162187043
3822,0.456094749,-0.226631166,9.061080176
3824,-0.492076976,0.059450254,9.50653378
3825,-1.112760908,-0.43782698,10.2902604
3827,-0.372563328,-1.309634158,9.549507029
3828,-1.564899397,0.454283327,11.00156998
3830,0.705294449,0.406735627,9.209250913
3831,0.558033379,1.163194519,9.878387698
3833,-0.030483515,0.135919355,9.763315749
3834,-0.824596166,-0.377187411,10.51194808
3836,-0.205330727,-1.024316211,9.944900937
3837,-0.34127857,-0.213836971,10.15112813
3839,-0.544156213,0.8135643,10.35447102
3840,0.487212623,0.530046564,9.507919685
3842,0.350929982,0.061431677,9.796942712
3843,-0.004158733,-0.548398862,9.759333139
3845,-0.291407699,-0.498507546,9.737863125
3846,-0.670101535,0.467508101,9.99874668
3848,-0.118477146,0.68120306,9.627451155
3849,0.087083806,-0.036832858,9.708405596
3851,-0.430441604,-0.643255074,10.5500306
3852,-0.459363687,-1.701968683,10.29494036
3854,-0.78830338,-1.480227267,9.661719042
3855,-1.08846567,0.100741645,9.728020388
3857,0.146582202,0.004685792,8.684904899
3858,0.39204308,-0.293803996,9.297949408
3860,0.505093357,-1.414436147,9.294822661
3861,-1.11212315,-1.325410961,9.962979283
3863,-1.113687606,-0.894048907,9.752455666
3864,-0.655656403,-0.004055869,9.707545523
3866,0.450971005,-0.250481021,9.229375843
3867,1.027539038,-0.828864056,9.395400105
3869,0.098143858,-1.124232021,10.01301384
3870,-1.147952496,-0.539000683,10.55566096
3872,-0.882995961,-1.000186117,9.745898152
3873,0.281263988,-0.825165631,9.599870595
3875,1.405746287,-0.838819145,9.959303528
3876,1.198400569,-0.841166196,9.994751677
3878,0.20003714,-0.233974426,9.999927456
3879,-0.384532446,-0.493119866,9.588854213
3881,-0.181143408,-0.590606883,9.63638126
3882,0.54254858,-0.398679788,9.672169636
3884,1.378377244,-0.311466207,9.846651842
3885,0.385310739,-0.243201274,10.48069056
3887,-0.557972561,-0.159887027,10.71149316
3888,0.523786967,-1.282713271,9.505431569
3890,0.41546999,-0.619115057,9.352376176
3893,0.644078852,-0.070308844,9.080186779
3895,0.714618851,-0.563372071,8.935875564
3896,-0.164185392,-1.071886787,9.477999667
3898,-1.131233441,-0.284131211,10.06013312
3899,-1.267722091,0.396539751,10.29101624
3901,0.831226875,-0.701443716,8.456612936
3902,0.230708936,-0.427747376,9.319967815
3904,0.2181303,-1.436415828,9.189112452
3905,-1.259580056,-0.67515426,10.5061556
3907,-0.771355322,-0.784877532,10.00974174
3908,-0.391524113,-0.234367152,9.772185627
3910,0.197290303,-0.382061497,10.06371055
3911,0.15664937,-0.584341662,10.41029373
3913,0.295347031,-1.287556873,9.841166295
3914,-0.069748283,-0.801940608,9.772735324
3916,-0.480415307,-0.276775491,10.2321778
3917,-0.067774202,-0.158770363,10.26346023
3919,1.137761764,-0.838655248,9.87536372
3920,0.685399555,-0.507680313,10.72269123
3922,0.41398937,-1.341585898,10.22350885
3923,-0.662381767,-0.621559438,10.19346991
3925,-0.568108369,-0.12812123,10.08304056
3926,0.430734881,-0.322146884,9.94308048
3928,0.691640395,-0.392754296,9.828525888
3929,0.594415857,-0.205282224,8.750943898
3931,-0.568667194,0.173730407,9.617354771
3932,-0.171520818,-1.209960552,9.589563132
3934,-0.573347895,-0.547438447,9.793029027
3935,0.212491347,-0.281125479,8.998992689
3937,0.396849306,-0.161962329,9.226624674
3938,0.215507907,-0.711801009,9.279180579
3940,-0.593854243,-0.718363594,9.414294155
3941,-0.326472537,-0.86070677,9.876235225
3943,0.461882797,-0.617702992,10.53817301
3944,0.796883001,-0.341671267,10.25428817
3946,0.478843241,-0.318683668,9.0057109
3947,-0.665230945,-0.360724421,9.2836222
3949,-0.392372607,-1.129013946,10.25169391
3950,0.444252865,-1.102323151,10.81078628
3952,0.905211511,-0.805045617,9.994480979
3953,-0.169247474,0.167243189,10.06264897
3955,0.217343525,-0.451031856,9.791899106
3956,0.532947399,-0.847555597,10.1449603
3958,0.19369477,-1.010713635,9.974885902
3959,-0.106111502,-0.557077494,8.62222486
3961,-0.849648835,0.549781902,8.964659368
3962,-0.648993645,-0.156347769,9.446062701
3964,-0.453334827,-0.410887405,9.808648373
3965,0.48797809,-0.345071452,8.971798777
3967,1.029573015,-0.114182202,8.150245247
3968,0.070269003,-0.091923339,8.642095563
3970,-0.993765794,-0.183877443,9.607099977
3971,-0.648232227,-1.11526658,9.909258267
3973,0.227986925,-1.011914467,10.17894046
3974,0.986622601,-0.683759693,9.849530073
3976,0.3231326,-0.147457516,9.450349675
3977,-0.39641874,-0.296361913,9.833333044
3979,-0.185220765,-0.607867423,9.65204403
3980,0.191484222,-0.019659555,9.661573837
3982,0.618297123,-0.236123162,9.20338965
3983,-0.974228005,0.278070318,10.08618011
3985,-0.73314125,-0.955785111,9.539404208
3986,0.07146837,-1.249804681,9.721918031
3988,0.80099485,-0.829451892,9.904047801
3990,0.749453759,0.226231861,9.636736469
3992,0.102055982,0.482375427,9.475921936
3993,-0.252641443,-0.383904562,9.869884327
3995,0.115230608,-0.95182084,10.4145741
3996,0.326805597,-0.104092965,10.19621031
3998,0.324714567,0.747934318,9.786128985
3999,0.108168678,0.186421485,9.421778515
4001,-0.210398119,-0.684344578,9.874184653
4002,-0.443686476,-1.175181714,9.919835888
4004,-0.538665794,-0.338546659,9.643400846
4005,0.122579942,0.328860556,9.281432829
4007,0.097535153,0.406439499,10.02167941
4008,0.249355249,-0.99878614,9.489306786
4010,-0.899849748,-1.31216741,9.408339021
4011,-1.438719741,-0.136780126,9.987155097
4013,0.511404779,-0.445058221,9.779143122
4014,0.905921545,-0.029136125,10.30124051
4016,0.167099725,0.434093521,10.69959492
4017,0.824997475,-0.4007095,9.578018997
4019,-0.181131253,-0.271572742,9.715524769
4020,-0.459829391,-0.626690687,9.553897775
4022,-0.529315445,0.046708014,9.855564548
4023,0.340165096,0.07903143,9.740565615
4025,0.586992478,0.089561344,9.84018967
4026,0.444496118,-0.358955219,9.430416999
4028,-0.8307378,0.055720369,10.37739856
4029,-0.136398414,-1.532470167,9.42745132
4031,-0.557275558,-0.460679349,9.855316197
4032,0.758958423,-0.449890449,8.779218702
4034,0.032355715,0.791622152,9.58844789
4035,0.369722524,0.155716783,8.724246117
4037,-1.260445491,0.285304613,9.736683788
4038,-0.462325415,-1.098598798,8.975440414
4040,-1.080963387,0.277497765,9.707126447
4041,0.490982247,-1.16298288,8.007799223
4043,-1.082188098,1.274144922,9.443074983
4044,0.93090361,-0.301180622,8.729171145
4046,-0.663521506,0.057923965,10.58427376
4047,-0.657250434,-0.776871982,9.609973923
4049,-0.841870875,0.075475404,9.315586474
4050,0.381449727,0.297265652,8.770238061
4052,0.887606997,0.70495656,10.46104922
4053,1.6313655,-1.508316094,10.12390438
4055,-1.965732786,-0.287498283,12.23728623
4056,-0.181130161,-1.908669049,8.97369937
4058,-0.361463934,0.150081008,9.620715967
4059,0.979625641,0.244159636,9.397943746
4061,0.647962177,0.796144,10.41572734
4062,1.053317474,-0.648077562,10.06159478
4064,-0.328167086,-1.131350627,9.742955346
4065,-1.236877871,-0.366896986,9.709581638
4067,-0.877427717,0.320555224,10.15473207
4068,0.495606118,-0.345536368,9.400079506
4070,0.342876247,-0.023222173,9.149000197
4071,-0.063978272,0.175857129,9.467811091
4073,0.003144233,0.164097426,9.144057101
4074,0.159986568,0.451696775,9.447010011
4076,0.630457839,-0.10005258,9.722162563
4077,0.670072962,0.143261645,10.07652021
4079,-0.242816561,0.244225145,9.896079864
4080,-0.640793476,-0.333293935,9.378958828
4082,0.192536286,-1.817206251,9.159309718
4083,-0.402436283,-0.046663626,10.57005106
4085,0.639711127,-0.108849643,10.20442655
4087,0.113651908,0.463659338,10.111984
4089,1.203814827,-0.811333522,8.516980402
4090,0.369953593,-0.107183819,9.693902256
4092,-0.12084064,0.125841644,10.51317682
4093,0.542619294,-0.452232517,10.19219098
4095,1.030221252,-1.33260367,9.476714973
4096,-0.023320053,-0.913671619,9.846266366
4098,0.64062331,-0.639879377,9.858818493
4099,1.313129597,0.018804172,9.618207177
4101,1.200695228,0.285871258,8.823077319
4102,0.455560181,-0.78631587,9.202293261
4104,-0.631126116,-1.458753464,10.05528285
4105,-0.094684716,-1.305085446,9.902252311
4107,0.762031021,-0.441114389,9.603068683
4108,1.536569694,0.68875926,9.552304119
4110,1.390851088,0.330741979,9.673257956
4111,0.053701802,-0.814711197,9.810579049
4113,-1.213970956,-1.669643451,10.02695457
4114,0.460893714,-1.69984812,9.360416812
4116,0.630763734,0.932313604,10.04041127
4117,2.18129329,1.112801658,8.997595386
4119,0.86279829,0.15164019,9.175228864
4120,-0.516421984,-2.28739584,10.12154212
4122,-1.242025339,-2.170738648,10.34415543
4123,-0.691455461,-0.35113675,10.20028168
4125,1.805541959,1.598391007,8.447764977
4126,1.789026536,0.821882453,9.488110474
4128,0.441033644,-0.474766438,9.20602871
4129,-1.026078156,-1.142378387,9.64580136
4131,-0.429150249,-1.533373859,10.23790887
4132,0.919680762,-0.476161112,10.13392108
4134,1.871648691,0.563860068,8.92623807
4135,1.008251372,0.617111047,8.91927589
4137,0.108713736,-0.89415354,10.18915949
4138,-0.309766364,-1.686660893,10.27987369
4140,-0.765658214,-0.206198526,9.829152541
4141,0.325116766,0.461781164,8.905995775
4143,1.802411385,-0.029314213,9.234119089
4144,0.940733909,-0.290161584,9.813426604
4146,-0.082151042,-0.889289206,9.816935947
4147,-0.148661558,-1.475489168,9.522076575
4149,0.529520917,-0.698164165,9.918803257
4150,1.779529336,0.042956991,9.589445154
4152,1.123341859,0.252404158,9.503722908
4153,0.297191149,-0.379283569,8.554193231
4155,-0.083651295,-1.023305947,9.430190113
4156,0.156684712,-1.363374619,10.40289115
4158,0.718704151,-0.855636144,9.805072491
4159,1.312358016,0.130984117,8.873351027
4161,1.703090023,0.309441439,9.079356496
4162,1.069882086,-0.335339273,9.827887688
4164,-0.02389074,-0.708713097,10.19203571
4165,0.195685364,-0.523196489,9.895000083
4167,0.614947584,-0.116889865,9.672256701
4168,1.352702939,-0.327950519,8.684349502
4170,0.643711795,0.001100341,9.405004762
4171,0.500464914,-0.574678271,10.41932559
4173,0.736046834,-0.81550859,10.92227432
4174,1.229273001,-1.316648795,9.097075396
4176,1.012480166,-0.801169599,8.052091158
4177,0.637947963,-0.076039125,9.472002422
4179,0.588377167,-0.576129157,10.52424096
4180,0.872584665,-0.988051075,9.900875029
4182,0.753754283,-1.087009976,9.290288331
4184,-0.342641216,-0.222894353,10.20601488
4186,0.852473011,-0.797859106,10.01122487
4187,1.65192411,-1.119532884,9.382992689
4189,0.476432893,-0.501927339,9.687692221
4190,0.460697564,-0.861516771,9.267767659
4192,0.614753824,-0.789742555,9.146207083
4193,0.897261634,0.142513683,9.229267132
4195,1.240124025,0.089678981,9.168865197
4196,1.15082052,-0.727396989,9.600067811
4198,0.551380786,-0.865020671,9.781439504
4199,-0.113858356,-0.562610822,9.752803332
4201,0.975804747,-0.726925365,9.59491591
4202,2.625630442,-1.305354979,9.15005366
4204,1.186095382,-0.310285187,9.778141352
4205,0.014426191,0.06870809,9.862043918
4207,0.504696775,-1.002132982,9.496840812
4208,0.455067165,-0.626137912,10.18345705
4210,1.053802862,-0.650177349,9.547513707
4211,1.147407743,-0.476149503,9.45623365
4213,0.777661616,-0.494595278,9.872103302
4214,0.5294971,-1.160255028,9.80508865
4216,0.00862377,-1.586303749,9.026065666
4217,-0.030870087,-0.797235988,8.837461184
4219,0.778161472,-0.745321656,9.680544602
4220,1.448433575,-0.513602683,9.880415593
4222,0.912062619,-0.140420361,9.597126961
4223,0.799179083,-0.503049919,8.868175015
4225,0.783150719,-0.631181473,9.519047444
4226,1.223801789,-1.081330971,9.92862351
4228,0.944224613,-0.790487276,10.07344803
4229,0.856186999,-0.683854186,9.734622001
4231,0.76184389,-0.471263198,9.663406766
4232,0.892485427,-0.28303706,9.704621943
4234,1.168812788,-0.37620913,9.590483921
4235,0.874892177,-0.95722224,9.53286702
4237,0.123684157,-1.185555494,9.552897927
4238,0.143861095,-0.921310362,9.479473639
4240,0.609297336,-0.54960581,9.330836942
4241,0.934506628,-0.231410974,9.3349811
4243,0.68798799,-0.242194318,9.33481161
4244,0.348741538,-0.513053815,9.525110247
4246,0.312681692,-0.94163526,9.75689704
4247,0.745219379,-0.627078387,9.782539568
4249,0.888695063,0.13391313,9.858560262
4250,0.835165923,-0.357970655,9.882905673
4252,0.486596116,-0.900818691,9.941313128
4253,0.123191192,-0.838004694,9.99254598
4255,0.864877727,-0.484186339,9.987783456
4256,1.197080465,0.023697413,9.876629513
4258,0.477604842,-0.038006741,9.670442024
4259,-0.182634309,-0.807738078,9.453621078
4261,-0.617042785,-0.224312031,9.835661152
4262,0.544876084,0.365635951,10.14714162
4264,1.53331956,0.946979106,10.2066331
4265,0.926590836,0.161615715,9.419913148
4267,-0.420638905,-0.935151056,9.012201585
4268,-0.716772865,-2.009515164,9.406716667
4270,0.184440858,-1.713245277,9.898945882
4271,0.863478124,0.266844447,9.8398659
4273,1.225670054,0.338145147,9.739054581
4274,0.528487197,-0.397162188,9.656916758
4276,-0.881994357,-1.265329492,9.449014898
4277,-0.85111258,-0.659191482,9.09155687
4279,0.886395292,-0.178307349,9.6499421
4282,1.683366871,0.262912031,10.15068508
4284,0.979993245,0.203535986,9.724595126
4285,-0.486826685,-0.164127828,9.554674081
4287,-1.003051219,-0.876662441,9.762404119
4288,-0.610342582,-0.961730728,10.16899166
4290,0.437206441,-0.360238319,10.04598333
4291,1.356439061,0.558932583,9.870959147
4293,1.35734117,0.774776177,9.678299981
4294,0.749414823,-0.286065129,9.532426815
4296,-0.458632991,-0.83711409,9.754112888
4297,-0.447883962,-1.291355729,10.00245741
4299,0.118009632,-0.425846735,10.216867
4300,1.354317965,0.579270812,9.713431177
4302,1.270509536,0.911756615,9.374499867
4303,0.056689481,0.064164732,9.642856098
