Packet number,Gyroscope X (deg/s),Gyroscope Y (deg/s),Gyroscope Z (deg/s),Accelerometer X (g),Accelerometer Y (g),Accelerometer Z (g),Magnetometer X (G),Magnetometer Y (G),Magnetometer Z (G)
1,1,-1.125,-0.125,-0.05029297,0.02685547,0.9594727,0.02539063,0.1943359,-0.6933594
2,1,-1.125,-0.125,-0.05029297,0.02685547,0.9594727,0.02539063,0.1943359,-0.6933594
3,1,-0.125,-0.5625,-0.04248047,0.03076172,0.9594727,0.01953125,0.1977539,-0.6889648
4,0.875,-1.0625,0,-0.05029297,0.03857422,0.9672852,0.01953125,0.1977539,-0.6889648
5,0.9375,-0.5625,-0.4375,-0.05419922,0.03466797,0.9711914,0.01953125,0.1977539,-0.6889648
6,0.5,-0.625,-0.75,-0.06591797,0.03466797,0.9672852,0.02880859,0.1933594,-0.6806641
7,1.4375,-1.1875,-0.6875,-0.05029297,0.02685547,0.9555664,0.02880859,0.1933594,-0.6806641
8,1.1875,-0.5625,-0.125,-0.03076172,0.03466797,0.9516602,0.02880859,0.1933594,-0.6806641
9,1.1875,0.0625,-0.5,-0.06591797,0.05029297,0.9750977,0.03027344,0.2001953,-0.6918945
10,0.5,0.1875,-0.375,-0.05419922,0.03466797,0.9868164,0.03027344,0.2001953,-0.6918945
11,1.3125,-0.0625,-0.3125,-0.03857422,0.03076172,0.9555664,0.03027344,0.2001953,-0.6918945
12,0.9375,-0.5,-0.25,-0.05810547,0.03857422,0.9672852,0.01855469,0.1953125,-0.6865234
13,1.25,-0.625,-0.25,-0.05810547,0.04248047,0.9672852,0.01855469,0.1953125,-0.6865234
14,1.3125,-0.1875,-0.6875,-0.04248047,0.04248047,0.9672852,0.01855469,0.1953125,-0.6865234
15,1.5625,0.25,-0.5625,-0.04248047,0.04248047,0.9594727,0.01855469,0.1953125,-0.6865234
16,1.4375,0,-0.4375,-0.05810547,0.02294922,1.001953,0.01855469,0.1953125,-0.6865234
17,0.875,-0.5625,-0.9375,-0.04638672,0.03076172,0.9829102,0.01855469,0.1953125,-0.6865234
18,0.9375,-0.25,-0.25,-0.06201172,0.03857422,0.9829102,0.01855469,0.1953125,-0.6865234
19,0.9375,-0.6875,-0.5,-0.04248047,0.04248047,0.9750977,0.02099609,0.2011719,-0.6918945
20,0.75,-0.6875,-0.375,-0.03857422,0.01513672,0.9711914,0.02099609,0.2011719,-0.6918945
21,0.875,-0.6875,-0.25,-0.06201172,0.04248047,0.9516602,0.02099609,0.2011719,-0.6918945
22,0.5625,-0.625,-0.4375,-0.05810547,0.04638672,0.9829102,0.02197266,0.1943359,-0.6777344
23,0.75,0.0625,-0.5,-0.04248047,0.04248047,0.9672852,0.02197266,0.1943359,-0.6777344
24,0.9375,-0.625,-0.6875,-0.04638672,0.05029297,0.9829102,0.02197266,0.1943359,-0.6777344
25,1.25,-0.6875,-0.4375,-0.05029297,0.04248047,0.9555664,0.02197266,0.1943359,-0.6777344
26,0.9375,-0.1875,-0.8125,-0.04638672,0.03076172,0.9633789,0.02197266,0.1943359,-0.6777344
27,0.6875,-1.0625,-0.5,-0.04248047,0.03076172,0.9672852,0.02197266,0.1943359,-0.6777344
28,0.6875,0.3125,-0.6875,-0.05810547,0.05029297,0.9672852,0.02197266,0.1943359,-0.6777344
29,0.25,-0.6875,-0.75,-0.04638672,0.05029297,0.9829102,0.02197266,0.190918,-0.6875
30,1.1875,-0.6875,-0.6875,-0.03466797,0.05419922,0.9672852,0.02197266,0.190918,-0.6875
31,0.6875,0.25,-0.6875,-0.05419922,0.03466797,0.9750977,0.02197266,0.190918,-0.6875
32,0.5,-0.3125,-0.375,-0.03857422,0.01513672,0.9477539,0.03369141,0.1977539,-0.6904297
33,0.375,0,-1,-0.03857422,0.03466797,0.9672852,0.03369141,0.1977539,-0.6904297
34,0.4375,-0.1875,-0.625,-0.04638672,0.06591797,0.9711914,0.03369141,0.1977539,-0.6904297
35,0.4375,-0.125,-0.125,-0.06591797,0.05810547,0.9790039,0.02099609,0.1894531,-0.6875
36,-0.25,-0.75,-0.75,-0.05029297,0.03857422,0.9672852,0.02099609,0.1894531,-0.6875
37,0.5,-0.3125,-0.4375,-0.05029297,0.03466797,0.9477539,0.02099609,0.1894531,-0.6875
38,0.3125,-0.6875,-1.1875,-0.04638672,0.04248047,0.9672852,0.02099609,0.1894531,-0.6875
39,0,-0.5625,-0.75,-0.05419922,0.02294922,0.9829102,0.02099609,0.1977539,-0.6835938
40,0.4375,-0.625,-0.6875,-0.06591797,0.03466797,0.9829102,0.02099609,0.1977539,-0.6835938
41,-0.125,-1.4375,-0.625,-0.05810547,0.03076172,0.9829102,0.02099609,0.1977539,-0.6835938
42,0.75,-0.25,-0.6875,-0.06201172,0.02685547,0.9829102,0.01611328,0.1918945,-0.6821289
43,0.5,-0.5625,-0.625,-0.05029297,0.02685547,0.9516602,0.01611328,0.1918945,-0.6821289
44,0,-1.1875,-0.6875,-0.06591797,0.05419922,0.9829102,0.01611328,0.1918945,-0.6821289
45,0.6875,0,-0.625,-0.05029297,0.01513672,0.9829102,0.01855469,0.1967773,-0.6865234
46,0.5,-0.9375,-0.5625,-0.05810547,0.04638672,0.9750977,0.01855469,0.1967773,-0.6865234
47,0.25,-1.0625,-0.6875,-0.05029297,0.05029297,0.9594727,0.01855469,0.1967773,-0.6865234
48,0.5625,-0.3125,-0.9375,-0.04638672,0.03857422,0.9633789,0.01855469,0.1967773,-0.6865234
49,0.25,0.125,-0.4375,-0.06591797,0.03466797,0.9594727,0.0234375,0.1943359,-0.6865234
50,1.125,-0.3125,-0.8125,-0.03857422,0.05029297,0.9555664,0.0234375,0.1943359,-0.6865234
51,-0.1875,0.125,-1.125,-0.05419922,0.04248047,0.9829102,0.0234375,0.1943359,-0.6865234
52,0.625,-0.75,-0.75,-0.06201172,0.04248047,0.9829102,0.02197266,0.1967773,-0.6835938
53,0.6875,0,-0.6875,-0.06201172,0.03466797,0.9594727,0.02197266,0.1967773,-0.6835938
54,0.1875,-0.8125,-0.875,-0.05419922,0.01904297,0.9711914,0.02197266,0.1967773,-0.6835938
55,0.6875,-0.3125,-0.4375,-0.03076172,0.05029297,0.9594727,0.02539063,0.1967773,-0.6806641
56,0.6875,-0.6875,-0.25,-0.05029297,0.04638672,0.9750977,0.02539063,0.1967773,-0.6806641
57,0.8125,0,-0.75,-0.05810547,0.02685547,0.9868164,0.02539063,0.1967773,-0.6806641
58,0.4375,-0.1875,-0.125,-0.03857422,0.03076172,0.9750977,0.02539063,0.1967773,-0.6806641
59,0.5625,-0.25,0,-0.04638672,0.03076172,0.9711914,0.02685547,0.190918,-0.6875
60,0.9375,0.125,-0.3125,-0.03857422,0.03857422,0.9555664,0.02685547,0.190918,-0.6875
61,1,-0.1875,-0.9375,-0.05029297,0.01513672,0.9672852,0.02685547,0.190918,-0.6875
62,1.0625,0.4375,-0.625,-0.05029297,0.05810547,0.9399414,0.0234375,0.1918945,-0.6835938
63,0.75,0.1875,-0.875,-0.04248047,0.05029297,0.9711914,0.0234375,0.1918945,-0.6835938
64,0.125,0.5625,-0.625,-0.05029297,0.03857422,0.9750977,0.0234375,0.1918945,-0.6835938
65,0.5,1.1875,0,-0.06591797,0.02294922,0.9829102,0.02197266,0.1967773,-0.6850586
66,0.75,0.875,-0.6875,-0.05419922,0.03466797,0.9711914,0.02197266,0.1967773,-0.6850586
67,0.9375,0.6875,-1.1875,-0.04638672,0.02685547,0.9829102,0.02197266,0.1967773,-0.6850586
68,1.0625,-0.0625,-0.5625,-0.05810547,0.02685547,0.9711914,0.02197266,0.1967773,-0.6850586
69,0.4375,0.5625,-0.375,-0.05810547,0.04248047,0.9829102,0.02197266,0.1967773,-0.6850586
70,0.3125,0,-0.125,-0.05810547,0.04248047,0.9985352,0.02197266,0.1967773,-0.6850586
71,0.6875,0,-0.75,-0.04248047,0.03076172,0.9672852,0.02197266,0.1967773,-0.6850586
72,0.3125,0.625,-0.375,-0.05419922,0.03076172,0.9790039,0.0234375,0.1967773,-0.6918945
73,0.5625,0.375,-0.4375,-0.05029297,0.03076172,0.9829102,0.0234375,0.1967773,-0.6918945
74,0.25,-0.4375,-0.5625,-0.05810547,0.03076172,0.9711914,0.0234375,0.1967773,-0.6918945
75,0.375,0,-0.625,-0.05029297,0.04638672,0.9516602,0.02197266,0.2011719,-0.6962891
76,0.6875,0,-1.0625,-0.05029297,0.03857422,0.9594727,0.02197266,0.2011719,-0.6962891
77,0,-0.4375,-0.75,-0.06201172,0.04248047,0.9672852,0.02197266,0.2011719,-0.6962891
78,0.75,-0.25,-0.4375,-0.05810547,0.03466797,0.9829102,0.02197266,0.2011719,-0.6962891
79,-0.0625,-0.375,-0.5,-0.03857422,0.02685547,0.9672852,0.02197266,0.2011719,-0.6962891
80,-0.1875,-0.375,-0.3125,-0.05419922,0.03466797,0.9907227,0.02197266,0.2011719,-0.6962891
81,0.375,-0.4375,-1.0625,-0.05810547,0.03076172,0.9711914,0.02197266,0.2011719,-0.6962891
82,-0.125,-0.25,0.0625,-0.04638672,0.02685547,0.9594727,0.02441406,0.1977539,-0.6918945
83,-0.1875,-0.375,-0.5,-0.05810547,0.03466797,0.9555664,0.02441406,0.1977539,-0.6918945
84,-0.0625,-0.625,-0.5,-0.05810547,0.01513672,0.9633789,0.02441406,0.1977539,-0.6918945
85,0.375,-0.4375,-0.4375,-0.04638672,0.04638672,0.9829102,0.02441406,0.1918945,-0.6850586
86,0.5,-0.8125,-0.3125,-0.05419922,0.03076172,0.9868164,0.02441406,0.1918945,-0.6850586
87,0,-0.25,-0.5625,-0.05029297,0.05029297,0.9868164,0.02441406,0.1918945,-0.6850586
88,0.375,-0.3125,-0.4375,-0.06591797,0.01123047,0.9399414,0.01953125,0.1933594,-0.6791992
89,-0.1875,-0.25,-0.5625,-0.04248047,0.04248047,0.9594727,0.01953125,0.1933594,-0.6791992
90,-0.3125,0.375,-0.5,-0.05029297,0.03857422,0.9555664,0.01953125,0.1933594,-0.6791992
91,-0.25,0.1875,-0.5,-0.04248047,0.02685547,0.9672852,0.01953125,0.1933594,-0.6791992
92,0.75,0.4375,-0.125,-0.04638672,0.02685547,0.9672852,0.02197266,0.1967773,-0.6835938
93,0,0.8125,-0.9375,-0.03466797,0.01513672,0.9594727,0.02197266,0.1967773,-0.6835938
94,-0.3125,0.5,-1.0625,-0.05810547,0.02294922,0.9633789,0.02197266,0.1967773,-0.6835938
95,0,0.875,-0.5625,-0.04248047,0.05029297,0.9790039,0.02197266,0.1860352,-0.6904297
96,0.125,1,-0.375,-0.05810547,0.01904297,0.9633789,0.02197266,0.1860352,-0.6904297
97,0.1875,1.0625,-0.625,-0.06591797,0.01904297,0.9868164,0.02197266,0.1860352,-0.6904297
98,-0.1875,0.5,-0.5625,-0.04638672,0.05029297,0.9829102,0.0234375,0.2060547,-0.6865234
99,-0.25,0,-0.5625,-0.04248047,0.03076172,0.9829102,0.0234375,0.2060547,-0.6865234
100,0.125,0.1875,-0.1875,-0.04638672,0.05029297,0.9946289,0.0234375,0.2060547,-0.6865234
101,-0.3125,-0.0625,-0.6875,-0.06591797,0.04638672,0.9672852,0.0234375,0.2060547,-0.6865234
102,0,-0.5625,-0.25,-0.04248047,0.04638672,0.9711914,0.01611328,0.1967773,-0.6835938
103,0.0625,-0.3125,0.125,-0.06982422,0.03076172,0.9829102,0.01611328,0.1967773,-0.6835938
104,-0.1875,0.1875,-0.9375,-0.04638672,0.04248047,0.9829102,0.01611328,0.1967773,-0.6835938
105,-0.3125,0.4375,-0.375,-0.05810547,0.05029297,0.9633789,0.02539063,0.190918,-0.6850586
106,0,0,-0.875,-0.04248047,0.04248047,0.9594727,0.02539063,0.190918,-0.6850586
107,0,0.4375,-0.4375,-0.05810547,0.03466797,0.9829102,0.02539063,0.190918,-0.6850586
108,-0.25,0,-0.3125,-0.06591797,0.04638672,0.9868164,0.0234375,0.1967773,-0.6806641
109,0,0,-0.6875,-0.06201172,0.03857422,0.9829102,0.0234375,0.1967773,-0.6806641
110,-0.0625,-0.3125,-0.25,-0.06591797,0.02294922,0.9594727,0.0234375,0.1967773,-0.6806641
111,-0.25,-0.5,-0.0625,-0.05810547,0.02685547,0.9594727,0.0234375,0.1967773,-0.6806641
112,0.375,-0.5625,-0.25,-0.06982422,0.03857422,0.9868164,0.0234375,0.1967773,-0.6806641
113,0.0625,-0.9375,-0.5,-0.05810547,0.03466797,0.9790039,0.0234375,0.1967773,-0.6806641
114,-0.8125,-1.125,0,-0.01513672,0.03857422,0.9399414,0.0234375,0.1967773,-0.6806641
115,-0.1875,-1.125,-0.125,-0.06201172,0.04248047,0.9555664,0.02197266,0.1953125,-0.6948242
116,-0.1875,-1.3125,-0.0625,-0.04248047,0.03857422,0.9672852,0.02197266,0.1953125,-0.6948242
117,0,-0.9375,0.25,-0.06591797,0.05419922,0.9750977,0.02197266,0.1953125,-0.6948242
118,0.125,-1.5625,0.25,-0.03466797,0.03076172,0.9555664,0.01855469,0.1918945,-0.6821289
119,-0.1875,-2,-0.4375,-0.05419922,0.04248047,0.9868164,0.01855469,0.1918945,-0.6821289
120,-0.375,-1.1875,-0.5,-0.04248047,0.05810547,0.9633789,0.01855469,0.1918945,-0.6821289
121,-0.0625,-1.1875,-0.625,-0.05810547,0.03857422,0.9829102,0.01855469,0.1918945,-0.6821289
122,0,-1.125,-0.5625,-0.05029297,0.04638672,0.9711914,0.01855469,0.1918945,-0.6821289
123,-0.3125,-0.9375,-0.5625,-0.04638672,0.03857422,0.9555664,0.01855469,0.1918945,-0.6821289
124,-0.3125,-0.1875,-0.8125,-0.04638672,0.06201172,0.9907227,0.01855469,0.1918945,-0.6821289
125,-0.4375,-1.6875,-0.5,-0.04638672,0.03076172,0.9711914,0.02783203,0.1967773,-0.6821289
126,-0.1875,-0.625,-0.25,-0.05419922,0.05029297,0.9477539,0.02783203,0.1967773,-0.6821289
127,-0.1875,-0.1875,-0.5625,-0.03466797,0.03076172,0.9672852,0.02783203,0.1967773,-0.6821289
128,-0.5,-0.0625,-0.6875,-0.06982422,0.05029297,0.9594727,0.02685547,0.1918945,-0.6791992
129,0.1875,-0.875,-0.5,-0.05810547,0.03857422,0.9868164,0.02685547,0.1918945,-0.6791992
130,0.25,-0.875,-0.625,-0.07373047,0.03466797,0.9829102,0.02685547,0.1918945,-0.6791992
131,0,-0.0625,-0.5,-0.04248047,0.02685547,0.9829102,0.01611328,0.190918,-0.6904297
132,0.5625,-0.5625,-1,-0.06201172,0.03076172,0.9672852,0.01611328,0.190918,-0.6904297
133,0,-0.0625,-0.625,-0.03076172,0.03076172,0.9594727,0.01611328,0.190918,-0.6904297
134,0,0,-1.125,-0.03076172,0.007324219,0.9672852,0.01611328,0.190918,-0.6904297
135,0.375,0.75,-0.625,-0.04248047,0.03466797,0.9711914,0.01757813,0.1992188,-0.6904297
136,0.1875,0.25,-0.6875,-0.03466797,0.04638672,0.9672852,0.01757813,0.1992188,-0.6904297
137,-0.0625,0.4375,-0.375,-0.05029297,0.03466797,0.9633789,0.01757813,0.1992188,-0.6904297
138,0.0625,0.6875,-1.125,-0.04248047,0.03857422,0.9594727,0.01513672,0.1977539,-0.6918945
139,0.0625,0.625,-0.875,-0.05810547,0.05029297,0.9868164,0.01513672,0.1977539,-0.6918945
140,0,0.1875,-0.6875,-0.05419922,0.04638672,0.9868164,0.01513672,0.1977539,-0.6918945
141,0.4375,0.75,-0.9375,-0.06982422,0.01904297,0.9829102,0.0234375,0.190918,-0.6972656
142,-0.1875,1,-0.75,-0.03076172,0.05029297,0.9711914,0.0234375,0.190918,-0.6972656
143,0.25,0.875,-0.75,-0.05029297,0.04638672,0.9868164,0.0234375,0.190918,-0.6972656
144,0.0625,0.875,-0.875,-0.03466797,0.05810547,0.9829102,0.0234375,0.190918,-0.6972656
145,0.125,0.5,-1.0625,-0.06591797,0.02685547,0.9672852,0.02441406,0.1953125,-0.6918945
146,0.3125,0.4375,-1.25,-0.05810547,0.03857422,0.9438477,0.02441406,0.1953125,-0.6918945
147,0.1875,0.5625,-1.0625,-0.06201172,0.04248047,0.9633789,0.02441406,0.1953125,-0.6918945
148,0,0.8125,-0.875,-0.04248047,0.03076172,0.9829102,0.02099609,0.1943359,-0.6875
149,0.0625,0.375,-1.1875,-0.03857422,0.03466797,0.9750977,0.02099609,0.1943359,-0.6875
150,-0.25,0.5,-0.8125,-0.04638672,0.01513672,0.9672852,0.02099609,0.1943359,-0.6875
151,0.6875,1,-1.125,-0.06201172,0.03857422,0.9633789,0.02685547,0.1943359,-0.6948242
152,-0.5625,0.6875,-1.125,-0.04248047,0.03076172,0.9829102,0.02685547,0.1943359,-0.6948242
153,0.125,1.5625,-1.125,-0.04248047,0.06201172,0.9633789,0.02685547,0.1943359,-0.6948242
154,-0.1875,1.4375,-1,-0.04638672,0.02294922,0.9555664,0.02685547,0.1943359,-0.6948242
155,0.0625,1.9375,-1.5625,-0.04638672,0.05029297,0.9555664,0.02685547,0.1943359,-0.6948242
156,0,2.5625,-0.875,-0.05810547,0.01513672,0.9672852,0.02685547,0.1943359,-0.6948242
157,0.25,2.6875,-1.375,-0.05810547,0.03076172,0.9633789,0.02685547,0.1943359,-0.6948242
158,0.25,2.75,-1.375,-0.05419922,0.03857422,0.9633789,0.02685547,0.1953125,-0.6904297
159,0,2.4375,-1.3125,-0.05029297,0.02685547,0.9829102,0.02685547,0.1953125,-0.6904297
160,0,2.3125,-1.625,-0.04638672,0.02685547,0.9594727,0.02685547,0.1953125,-0.6904297
161,-0.0625,2.375,-1.375,-0.05419922,0.01123047,0.9594727,0.02099609,0.1967773,-0.6835938
162,0.125,2.6875,-1.75,-0.03857422,0.01513672,0.9555664,0.02099609,0.1967773,-0.6835938
163,0,1.8125,-1.125,-0.06201172,0.03857422,0.9594727,0.02099609,0.1967773,-0.6835938
164,0.5,2.875,-0.8125,-0.04248047,0.01513672,0.9711914,0.02099609,0.1967773,-0.6835938
165,0.0625,2.4375,-1.5,-0.05419922,0.01513672,0.9829102,0.02099609,0.1967773,-0.6835938
166,0.4375,2.75,-1.1875,-0.04638672,0.04638672,0.9594727,0.02099609,0.1967773,-0.6835938
167,0.3125,2.25,-1.3125,-0.04248047,0.03076172,0.9672852,0.02099609,0.1967773,-0.6835938
168,0.3125,1.8125,-1.625,-0.03076172,0.01904297,0.9555664,0.02685547,0.1977539,-0.6918945
169,1.3125,2.125,-1.3125,-0.05810547,0.02685547,0.9477539,0.02685547,0.1977539,-0.6918945
170,0.6875,2.6875,-1.25,-0.06982422,0.03466797,0.9750977,0.02685547,0.1977539,-0.6918945
171,0.4375,2.4375,-1.5,-0.06201172,0.03076172,0.9750977,0.02441406,0.1943359,-0.7001953
172,0.5625,2.4375,-1.375,-0.06201172,0.04248047,0.9829102,0.02441406,0.1943359,-0.7001953
173,0.8125,2.4375,-1.125,-0.06201172,0.04638672,0.9868164,0.02441406,0.1943359,-0.7001953
174,0.8125,1.8125,-1.25,-0.07373047,0.03857422,0.9633789,0.02197266,0.1933594,-0.6850586
175,0.75,2.5,-1.0625,-0.06201172,0.01513672,0.9829102,0.02197266,0.1933594,-0.6850586
176,0.5625,1.9375,-1.1875,-0.04248047,0.02294922,0.9438477,0.02197266,0.1933594,-0.6850586
177,0.9375,2.125,-0.9375,-0.05419922,0.02294922,0.9633789,0.02197266,0.1933594,-0.6850586
178,0.75,1.6875,-0.875,-0.05810547,0.01123047,0.9868164,0.01757813,0.1953125,-0.6875
179,0.875,1.5,-1.1875,-0.06982422,0.01513672,0.9790039,0.01757813,0.1953125,-0.6875
180,0.125,1.8125,-1,-0.06591797,0.03076172,0.9711914,0.01757813,0.1953125,-0.6875
181,0.6875,1.75,-1,-0.06591797,0.03466797,0.9829102,0.02197266,0.1953125,-0.6918945
182,0.6875,2.3125,-1.0625,-0.06201172,0.03857422,0.9594727,0.02197266,0.1953125,-0.6918945
183,1.3125,1.3125,-1,-0.07373047,0.01513672,0.9829102,0.02197266,0.1953125,-0.6918945
184,0.8125,1.375,-1.5,-0.05810547,0.04638672,0.9829102,0.0234375,0.1933594,-0.6889648
185,0.3125,1.25,-1.0625,-0.07373047,0.03857422,0.9711914,0.0234375,0.1933594,-0.6889648
186,0.3125,1.125,-1.5625,-0.04638672,0.01513672,0.9829102,0.0234375,0.1933594,-0.6889648
187,0.9375,1.4375,-1,-0.08154297,0.03076172,0.9868164,0.0234375,0.1933594,-0.6889648
188,0.8125,1.75,-1.375,-0.05810547,0.03076172,0.9594727,0.0234375,0.1977539,-0.6875
189,0.0625,1.1875,-1.0625,-0.03466797,0.01513672,0.9633789,0.0234375,0.1977539,-0.6875
190,0.875,1.5625,-1,-0.04248047,0.01513672,0.9555664,0.0234375,0.1977539,-0.6875
191,0.4375,1.4375,-0.9375,-0.04638672,0.03857422,0.9672852,0.02441406,0.1977539,-0.6865234
192,0.875,0.875,-1.1875,-0.06201172,0.04638672,0.9868164,0.02441406,0.1977539,-0.6865234
193,0.6875,1,-0.9375,-0.05810547,0.02294922,0.9829102,0.02441406,0.1977539,-0.6865234
194,0.5625,1.1875,-1.25,-0.04248047,0.03857422,0.9672852,0.02441406,0.1967773,-0.6918945
195,0.625,0.75,-0.5625,-0.04248047,0.03466797,0.9555664,0.02441406,0.1967773,-0.6918945
196,0.5625,1.0625,-1,-0.03857422,0.02294922,0.9711914,0.02441406,0.1967773,-0.6918945
197,0.625,1,-1.125,-0.06982422,0.03466797,0.9477539,0.02441406,0.1967773,-0.6918945
198,0.5,1.25,-0.375,-0.06201172,0.03076172,0.9633789,0.02441406,0.1967773,-0.6918945
199,0.8125,1.375,-1.125,-0.05029297,0.03076172,0.9868164,0.02441406,0.1967773,-0.6918945
200,0.9375,1.0625,-0.4375,-0.06982422,0.02294922,0.9868164,0.02441406,0.1967773,-0.6918945
201,0.1875,1.4375,-1.25,-0.05419922,0.03857422,0.9829102,0.03027344,0.1977539,-0.6865234
202,1.1875,1.3125,-0.625,-0.06591797,0.01513672,0.9672852,0.03027344,0.1977539,-0.6865234
203,1,0.75,-1.125,-0.05810547,0.03076172,0.9555664,0.03027344,0.1977539,-0.6865234
204,0.8125,1,-1.1875,-0.07373047,0.01513672,1.001953,0.02880859,0.1967773,-0.6889648
205,0.75,1.1875,-0.5625,-0.05029297,0.03857422,0.9672852,0.02880859,0.1967773,-0.6889648
206,1.625,1.1875,-0.75,-0.06982422,0.05419922,0.9750977,0.02880859,0.1967773,-0.6889648
207,0.9375,0.5625,-0.875,-0.06591797,0.05029297,0.9829102,0.02880859,0.1967773,-0.6889648
208,0.4375,0.625,-0.75,-0.06591797,0.01513672,0.9750977,0.02880859,0.1967773,-0.6889648
209,0.625,0.5,-1.3125,-0.05029297,0.03857422,0.9985352,0.02880859,0.1967773,-0.6889648
210,0.3125,0,-1.0625,-0.05419922,0.03466797,0.9633789,0.02880859,0.1967773,-0.6889648
211,0.3125,0.375,-0.875,-0.06591797,0.01513672,0.9829102,0.02880859,0.1953125,-0.6889648
212,0.4375,-0.1875,-0.9375,-0.05810547,0.03857422,0.9829102,0.02880859,0.1953125,-0.6889648
213,-0.125,0,0,-0.07373047,0.05029297,0.9555664,0.02880859,0.1953125,-0.6889648
214,0.3125,-0.375,-0.5,-0.06201172,0.03857422,0.9711914,0.02685547,0.1918945,-0.6835938
215,0,-0.75,-0.625,-0.05419922,0.03857422,0.9790039,0.02685547,0.1918945,-0.6835938
216,-0.375,-1.125,-0.25,-0.06201172,0.03466797,0.9829102,0.02685547,0.1918945,-0.6835938
217,0,-0.875,-0.4375,-0.07373047,0.04248047,0.9790039,0.02197266,0.1967773,-0.6962891
218,0.3125,-1.5625,-0.25,-0.05810547,0.03857422,0.9790039,0.02197266,0.1967773,-0.6962891
219,0,-1.25,-0.125,-0.06982422,0.05419922,0.9711914,0.02197266,0.1967773,-0.6962891
220,0,-1.625,-0.3125,-0.08154297,0.04248047,0.9672852,0.02197266,0.1967773,-0.6962891
221,-0.3125,-1.25,-0.625,-0.05029297,0.03076172,0.9829102,0.02685547,0.1967773,-0.6933594
222,0.1875,-1.375,-0.0625,-0.05810547,0.04248047,0.9633789,0.02685547,0.1967773,-0.6933594
223,-0.75,-1.5625,0,-0.08154297,0.03076172,0.9829102,0.02685547,0.1967773,-0.6933594
224,-0.4375,-2.125,-0.375,-0.04638672,0.03857422,0.9907227,0.02441406,0.1933594,-0.6850586
225,-0.25,-1.5,0,-0.05810547,0.05029297,0.9438477,0.02441406,0.1933594,-0.6850586
226,-0.5,-1.1875,-0.125,-0.06201172,0.05029297,0.9868164,0.02441406,0.1933594,-0.6850586
227,-0.25,-1.8125,0,-0.05029297,0.01513672,0.9711914,0.02099609,0.2001953,-0.6850586
228,-0.125,-1.25,-0.9375,-0.05810547,0.03857422,0.9672852,0.02099609,0.2001953,-0.6850586
229,-0.3125,-0.9375,-0.125,-0.05810547,0.03466797,0.9672852,0.02099609,0.2001953,-0.6850586
230,-0.3125,-1.375,-1.1875,-0.05810547,0.02685547,0.9750977,0.02099609,0.2001953,-0.6850586
231,-0.3125,-0.9375,-0.3125,-0.05419922,0.05029297,0.9711914,0.03027344,0.1943359,-0.6875
232,-0.5,-0.875,-0.25,-0.05810547,0.03466797,0.9672852,0.03027344,0.1943359,-0.6875
233,0,-0.6875,-0.4375,-0.06591797,0.01123047,0.9672852,0.03027344,0.1943359,-0.6875
234,-0.1875,-0.8125,-0.0625,-0.05029297,0.03076172,0.9750977,0.02539063,0.1933594,-0.6918945
235,0.4375,-0.8125,-1,-0.06591797,0.03076172,0.9868164,0.02539063,0.1933594,-0.6918945
236,0.1875,-0.625,-0.4375,-0.07373047,0.04248047,0.9750977,0.02539063,0.1933594,-0.6918945
237,0.3125,-0.625,-0.6875,-0.05029297,0.04248047,0.9829102,0.02099609,0.1933594,-0.6904297
238,0,-0.625,-0.375,-0.04638672,0.05029297,0.9868164,0.02099609,0.1933594,-0.6904297
239,-0.3125,-0.375,-0.4375,-0.05419922,0.01123047,0.9555664,0.02099609,0.1933594,-0.6904297
240,0,-0.375,-0.375,-0.04248047,0.03466797,0.9633789,0.02099609,0.1933594,-0.6904297
241,0.375,-0.5,-0.5,-0.05810547,0.03076172,0.9672852,0.02197266,0.1967773,-0.6850586
242,0,0.1875,-0.625,-0.06201172,0.05029297,0.9555664,0.02197266,0.1967773,-0.6850586
243,0.5625,0,-0.75,-0.05419922,0.05419922,0.9477539,0.02197266,0.1967773,-0.6850586
244,0.5,0.1875,-0.6875,-0.05419922,0.04638672,0.9516602,0.01855469,0.1967773,-0.6821289
245,0.6875,-0.25,-0.625,-0.06201172,0.02685547,0.9829102,0.01855469,0.1967773,-0.6821289
246,0,0,-0.8125,-0.05810547,0.03466797,0.9672852,0.01855469,0.1967773,-0.6821289
247,0.375,0.75,-0.6875,-0.04638672,0.03076172,0.9829102,0.02441406,0.1953125,-0.6918945
248,0.4375,0.5625,-1.1875,-0.05029297,0.05029297,0.9594727,0.02441406,0.1953125,-0.6918945
249,0.3125,0.5,-0.6875,-0.05029297,0.05029297,0.9711914,0.02441406,0.1953125,-0.6918945
250,0.8125,0.625,-1.125,-0.04638672,0.02685547,0.9477539,0.02441406,0.1953125,-0.6918945
251,1,0.5,-1.125,-0.06201172,0.01513672,0.9829102,0.02441406,0.1953125,-0.6918945
252,0.8125,0.1875,-1,-0.03857422,0.03857422,0.9868164,0.02441406,0.1953125,-0.6918945
253,1.125,1,-0.6875,-0.05419922,0.01123047,0.9633789,0.02441406,0.1953125,-0.6918945
254,1.1875,0.5,-1.25,-0.06591797,0.03076172,0.9711914,0.02099609,0.1992188,-0.6821289
255,1.3125,0.625,-1.1875,-0.06982422,0.05419922,0.9594727,0.02099609,0.1992188,-0.6821289
256,0.8125,0.9375,-1,-0.05029297,0.02685547,0.9829102,0.02099609,0.1992188,-0.6821289
257,0.75,0.25,-1.125,-0.05810547,0.05419922,0.9555664,0.0234375,0.2001953,-0.6835938
258,0.8125,0.125,-1.4375,-0.08154297,0.03076172,0.9868164,0.0234375,0.2001953,-0.6835938
259,0.4375,0.25,-0.875,-0.05810547,0.02294922,0.9868164,0.0234375,0.2001953,-0.6835938
260,0.4375,0.375,-1.1875,-0.06201172,0.04248047,0.9711914,0.0234375,0.2001953,-0.6835938
261,0.4375,0.375,-0.75,-0.06201172,0.04248047,0.9829102,0.0234375,0.2001953,-0.6835938
262,0.8125,0.375,-1.125,-0.06982422,0.03076172,0.9868164,0.0234375,0.2001953,-0.6835938
263,0.4375,-0.1875,-1.4375,-0.05419922,0.02685547,0.9790039,0.0234375,0.2001953,-0.6835938
264,0.5625,0.4375,-0.5,-0.05419922,0.01904297,0.9711914,0.03125,0.190918,-0.6889648
265,0.1875,0.125,-1.125,-0.05810547,0.03466797,0.9555664,0.03125,0.190918,-0.6889648
266,0.5625,0,-0.875,-0.04638672,0.02685547,0.9633789,0.03125,0.190918,-0.6889648
267,0.75,0.25,-1.3125,-0.05029297,0.05419922,0.9907227,0.01855469,0.1953125,-0.6875
268,0.375,-0.625,-0.75,-0.05810547,0.03857422,0.9711914,0.01855469,0.1953125,-0.6875
269,0.6875,0.25,-1.0625,-0.05419922,0.03857422,0.9868164,0.01855469,0.1953125,-0.6875
270,1.0625,0,-0.5625,-0.06201172,0.03076172,0.9555664,0.02441406,0.1992188,-0.6875
271,0.8125,0.375,-1.1875,-0.06982422,0.01513672,0.9633789,0.02441406,0.1992188,-0.6875
272,0.9375,0.1875,-1,-0.06201172,0.01513672,0.9633789,0.02441406,0.1992188,-0.6875
273,0.5625,0.25,-1.3125,-0.04638672,0.03466797,0.9516602,0.02441406,0.1992188,-0.6875
274,0.5,-0.1875,-0.4375,-0.04248047,0.03076172,0.9868164,0.02539063,0.1953125,-0.6865234
275,0.375,0.375,-0.75,-0.04248047,0.03076172,0.9516602,0.02539063,0.1953125,-0.6865234
276,0.75,0.0625,-1.125,-0.04638672,0.05029297,0.9790039,0.02539063,0.1953125,-0.6865234
277,0.9375,0.0625,-0.625,-0.06201172,0.01123047,0.9829102,0.02685547,0.1918945,-0.6875
278,0.3125,0,-0.5625,-0.06982422,0.04248047,0.9711914,0.02685547,0.1918945,-0.6875
279,0.6875,0.125,-1.0625,-0.05419922,0.04248047,0.9633789,0.02685547,0.1918945,-0.6875
280,1.0625,0,-0.625,-0.03857422,0.05810547,0.9829102,0.02539063,0.1977539,-0.6850586
281,0.25,-0.0625,-0.6875,-0.06591797,0.03857422,0.9829102,0.02539063,0.1977539,-0.6850586
282,0.3125,0.375,-0.3125,-0.04638672,0.04248047,0.9516602,0.02539063,0.1977539,-0.6850586
283,1.375,0.4375,-1.25,-0.06591797,0.04248047,0.9633789,0.02539063,0.1977539,-0.6850586
284,0.125,0.625,-1,-0.05419922,0.01123047,0.9672852,0.02880859,0.1860352,-0.6962891
285,0.75,0.25,-0.6875,-0.05810547,0.03466797,0.9829102,0.02880859,0.1860352,-0.6962891
286,0.625,0,-0.375,-0.06201172,0.04248047,0.9829102,0.02880859,0.1860352,-0.6962891
287,0.4375,0.125,-0.6875,-0.05419922,0.04638672,0.9985352,0.02441406,0.1977539,-0.6865234
288,0.3125,0.4375,-0.4375,-0.06591797,0.03466797,0.9594727,0.02441406,0.1977539,-0.6865234
289,0.8125,0.3125,-0.875,-0.03857422,0.05810547,0.9672852,0.02441406,0.1977539,-0.6865234
290,1.1875,0.6875,-0.9375,-0.05029297,0.03076172,0.9829102,0.02685547,0.2001953,-0.6791992
291,0.625,0.6875,-0.625,-0.05810547,0.05810547,0.9750977,0.02685547,0.2001953,-0.6791992
292,1.3125,0.6875,-0.875,-0.06201172,0.04638672,0.9399414,0.02685547,0.2001953,-0.6791992
293,0.8125,0.375,-0.5625,-0.06201172,0.03857422,0.9672852,0.02685547,0.2001953,-0.6791992
294,1,0.1875,-0.875,-0.05419922,0.03466797,0.9829102,0.02685547,0.2001953,-0.6791992
295,1.375,0.75,-1,-0.05810547,0.02685547,0.9555664,0.02685547,0.2001953,-0.6791992
296,0.3125,0.4375,-1,-0.05419922,0.01513672,0.9829102,0.02685547,0.2001953,-0.6791992
297,0.625,0.25,-0.6875,-0.06982422,0.04248047,0.9829102,0.03027344,0.1894531,-0.6889648
298,0.3125,0.75,-1.125,-0.05419922,0.03076172,0.9750977,0.03027344,0.1894531,-0.6889648
299,0.875,0.5,-1.0625,-0.06201172,0.03857422,0.9672852,0.03027344,0.1894531,-0.6889648
300,1.0625,0.3125,-0.9375,-0.06982422,0.04248047,0.9633789,0.02539063,0.1933594,-0.6918945
301,0.625,0.375,-0.8125,-0.06201172,0.03466797,0.9829102,0.02539063,0.1933594,-0.6918945
302,0.1875,-0.0625,-0.6875,-0.05419922,0.03857422,0.9711914,0.02539063,0.1933594,-0.6918945
303,0.8125,-0.1875,-0.5,-0.06591797,0.01513672,0.9672852,0.02539063,0.1933594,-0.6918945
304,0.3125,-0.6875,-0.6875,-0.06591797,0.04248047,0.9829102,0.02539063,0.1933594,-0.6918945
305,0.5,-0.5625,-0.5625,-0.05419922,0.03076172,0.9829102,0.02539063,0.1933594,-0.6918945
306,0.9375,0.0625,-0.375,-0.04638672,0.04248047,0.9946289,0.02539063,0.1933594,-0.6918945
307,0.4375,-0.25,-1,-0.07373047,0.03076172,0.9829102,0.02783203,0.1884766,-0.6875
308,0.5625,0,-0.6875,-0.06591797,0.04638672,0.9750977,0.02783203,0.1884766,-0.6875
309,0.1875,0.375,-0.4375,-0.04638672,0.01513672,0.9711914,0.02783203,0.1884766,-0.6875
310,0,0.625,-1.1875,-0.05029297,0.03076172,0.9829102,0.0234375,0.1943359,-0.6806641
311,0.75,-0.25,-0.25,-0.05810547,0.05029297,0.9633789,0.0234375,0.1943359,-0.6806641
312,0.625,0,-0.9375,-0.07373047,0.04248047,0.9868164,0.0234375,0.1943359,-0.6806641
313,0.375,-0.1875,-0.6875,-0.06201172,0.02294922,0.9711914,0.0234375,0.1933594,-0.6850586
314,0.1875,0,-0.6875,-0.06201172,0.01513672,0.9672852,0.0234375,0.1933594,-0.6850586
315,0.75,-0.125,-0.75,-0.04638672,0.03076172,0.9907227,0.0234375,0.1933594,-0.6850586
316,0.25,-0.25,-1,-0.07373047,0.01513672,0.9594727,0.0234375,0.1933594,-0.6850586
317,0.125,-0.125,-1.125,-0.05419922,0.04248047,0.9672852,0.02441406,0.1918945,-0.675293
318,0.5,-0.0625,-0.875,-0.06201172,0.03466797,0.9516602,0.02441406,0.1918945,-0.675293
319,0.4375,0.125,-0.375,-0.07373047,0.03857422,0.9829102,0.02441406,0.1918945,-0.675293
320,0.1875,0.375,-0.8125,-0.05029297,0.03076172,0.9946289,0.02783203,0.1953125,-0.6904297
321,1,0.0625,-0.6875,-0.05810547,0.02685547,0.9672852,0.02783203,0.1953125,-0.6904297
322,0.625,0.1875,-0.6875,-0.05810547,0.03466797,0.9829102,0.02783203,0.1953125,-0.6904297
323,0.375,0.4375,-0.6875,-0.06591797,0.02294922,0.9750977,0.02099609,0.1943359,-0.6904297
324,0.75,0.4375,-0.4375,-0.08154297,0.03857422,0.9711914,0.02099609,0.1943359,-0.6904297
325,0.625,-0.125,-0.3125,-0.05029297,0.03466797,0.9868164,0.02099609,0.1943359,-0.6904297
326,0.125,0,-0.1875,-0.05419922,0.04248047,0.9672852,0.02099609,0.1943359,-0.6904297
327,0.5625,0.4375,-0.8125,-0.03857422,0.03076172,0.9711914,0.02783203,0.1943359,-0.6972656
328,0.1875,0.125,-0.375,-0.05810547,0.03466797,0.9829102,0.02783203,0.1943359,-0.6972656
329,0.625,-0.0625,-0.1875,-0.05419922,0.02685547,0.9750977,0.02783203,0.1943359,-0.6972656
330,0.1875,0,-0.6875,-0.06591797,0.03466797,0.9868164,0.02685547,0.1967773,-0.6918945
331,0.125,-0.5625,-0.1875,-0.04248047,0.03857422,0.9711914,0.02685547,0.1967773,-0.6918945
332,0.375,-0.375,-0.8125,-0.06591797,0.03076172,0.9829102,0.02685547,0.1967773,-0.6918945
333,0.5625,-0.25,-0.625,-0.07373047,0.03466797,0.9672852,0.0234375,0.1884766,-0.6875
334,0.375,0,-1,-0.06201172,0.03076172,0.9477539,0.0234375,0.1884766,-0.6875
335,0.875,0.3125,-0.75,-0.06591797,0.03076172,0.9594727,0.0234375,0.1884766,-0.6875
336,0.5,-0.1875,-0.5,-0.06201172,0.01513672,0.9633789,0.0234375,0.1884766,-0.6875
337,0.5,-0.5,-0.625,-0.06201172,0.05029297,0.9750977,0.01953125,0.1933594,-0.6904297
338,0.1875,-0.0625,-0.3125,-0.07373047,0.04248047,0.9868164,0.01953125,0.1933594,-0.6904297
339,0.4375,0,-0.625,-0.06201172,0.03076172,0.9907227,0.01953125,0.1933594,-0.6904297
340,0.4375,-0.5625,-0.875,-0.04638672,0.01513672,0.9829102,0.02880859,0.1977539,-0.6821289
341,0.125,-0.375,-0.9375,-0.06982422,0.01513672,0.9829102,0.02880859,0.1977539,-0.6821289
342,0.6875,-0.375,-0.5625,-0.06591797,0.03466797,0.9829102,0.02880859,0.1977539,-0.6821289
343,0.375,0.0625,-0.875,-0.05810547,0.03857422,0.9672852,0.02441406,0.1933594,-0.6962891
344,0.5,0,-0.875,-0.08544922,0.01513672,0.9633789,0.02441406,0.1933594,-0.6962891
345,-0.0625,0.1875,-0.25,-0.08935547,0.03076172,0.9829102,0.02441406,0.1933594,-0.6962891
346,0.3125,-0.375,-0.8125,-0.03857422,0.03466797,0.9516602,0.02441406,0.1933594,-0.6962891
347,0.75,0.1875,-0.4375,-0.06201172,0.01513672,0.9985352,0.02441406,0.1933594,-0.6962891
348,0.1875,-0.375,-0.75,-0.05029297,0.04248047,0.9438477,0.02441406,0.1933594,-0.6962891
349,0.625,0.125,-1.0625,-0.06201172,0.03857422,0.9868164,0.02441406,0.1933594,-0.6962891
350,0.5625,0.0625,-0.25,-0.08154297,0.03076172,0.9633789,0.02099609,0.190918,-0.6889648
351,0.625,0.1875,-0.25,-0.05810547,0.05029297,0.9711914,0.02099609,0.190918,-0.6889648
352,0.25,0.1875,-0.25,-0.05029297,0.04248047,0.9672852,0.02099609,0.190918,-0.6889648
353,0.1875,-0.0625,-0.5625,-0.05810547,0.05029297,0.9555664,0.0234375,0.1967773,-0.6821289
354,0.1875,-0.125,-0.625,-0.05810547,0.02294922,0.9672852,0.0234375,0.1967773,-0.6821289
355,0,0.1875,-0.6875,-0.04638672,0.04638672,0.9555664,0.0234375,0.1967773,-0.6821289
356,0,0,-0.6875,-0.08154297,0.04638672,0.9750977,0.02880859,0.2001953,-0.6918945
357,-0.1875,-0.25,-0.8125,-0.05029297,0.03857422,0.9672852,0.02880859,0.2001953,-0.6918945
358,0.375,0.25,-0.5,-0.06591797,0.05419922,0.9829102,0.02880859,0.2001953,-0.6918945
359,0.125,0.125,-0.3125,-0.06591797,0.05029297,0.9868164,0.02880859,0.2001953,-0.6918945
360,0.0625,0,-0.3125,-0.05029297,0.03857422,0.9711914,0.02539063,0.1860352,-0.6850586
361,-0.1875,0.125,-0.5,-0.05810547,0.05419922,0.9868164,0.02539063,0.1860352,-0.6850586
362,0.4375,-0.25,-0.5625,-0.04248047,0.03076172,0.9633789,0.02539063,0.1860352,-0.6850586
363,0.8125,0,-0.375,-0.04638672,0.04248047,0.9750977,0.02783203,0.1967773,-0.6850586
364,0,0.375,-0.4375,-0.06201172,0.02685547,0.9516602,0.02783203,0.1967773,-0.6850586
365,0.125,-0.0625,-0.5,-0.03466797,0.05810547,0.9829102,0.02783203,0.1967773,-0.6850586
366,0.5,-0.125,-0.6875,-0.04638672,0.03076172,0.9829102,0.02880859,0.1875,-0.6875
367,0.375,0.1875,-0.5625,-0.06982422,0.04248047,0.9750977,0.02880859,0.1875,-0.6875
368,0.3125,0,-0.6875,-0.05029297,0.03466797,0.9711914,0.02880859,0.1875,-0.6875
369,0.4375,-0.1875,-0.75,-0.05029297,0.01513672,0.9868164,0.02880859,0.1875,-0.6875
370,0.625,0.125,-0.375,-0.04638672,0.04638672,0.9790039,0.02441406,0.1953125,-0.6835938
371,0.125,-0.0625,-0.8125,-0.05419922,0.04248047,0.9711914,0.02441406,0.1953125,-0.6835938
372,0.25,0.25,-0.75,-0.05029297,0.04638672,0.9477539,0.02441406,0.1953125,-0.6835938
373,0.25,0,-0.5,-0.05810547,0.04638672,0.9672852,0.02197266,0.1933594,-0.6875
374,0.1875,-0.0625,-0.5625,-0.05810547,0.04638672,0.9477539,0.02197266,0.1933594,-0.6875
375,0.5625,-0.0625,-0.3125,-0.05419922,0.03076172,0.9555664,0.02197266,0.1933594,-0.6875
376,0.0625,-0.3125,-0.6875,-0.05810547,0.04248047,0.9711914,0.03466797,0.1933594,-0.6948242
377,0.4375,0.25,-0.5,-0.06201172,0.02685547,0.9711914,0.03466797,0.1933594,-0.6948242
378,0,0,-0.6875,-0.05810547,0.06201172,0.9672852,0.03466797,0.1933594,-0.6948242
379,0.1875,-0.3125,-0.625,-0.03857422,0.03466797,0.9555664,0.03466797,0.1933594,-0.6948242
380,0.6875,-0.3125,-0.625,-0.05810547,0.04248047,0.9672852,0.02783203,0.1918945,-0.6875
381,0.25,-0.4375,-0.6875,-0.04638672,0.03076172,0.9672852,0.02783203,0.1918945,-0.6875
382,0.5,0,-0.625,-0.05029297,0.02685547,0.9750977,0.02783203,0.1918945,-0.6875
383,0.625,-0.5,-0.5625,-0.05419922,0.03076172,0.9750977,0.02783203,0.1884766,-0.6806641
384,0.5,-0.3125,-1.25,-0.06591797,0.03857422,0.9633789,0.02783203,0.1884766,-0.6806641
385,-0.125,0.25,0,-0.07373047,0.04638672,0.9516602,0.02783203,0.1884766,-0.6806641
386,0.5,-0.125,-0.75,-0.06591797,0.04248047,0.9711914,0.02783203,0.190918,-0.6889648
387,0.375,0.0625,-0.375,-0.05419922,0.02685547,0.9516602,0.02783203,0.190918,-0.6889648
388,0.375,-0.1875,-0.625,-0.05810547,0.04248047,0.9750977,0.02783203,0.190918,-0.6889648
389,0.1875,-0.125,-0.5625,-0.05419922,0.03857422,0.9555664,0.02783203,0.190918,-0.6889648
390,0.25,0.1875,0,-0.07373047,0.03076172,0.9750977,0.02783203,0.190918,-0.6889648
391,0.1875,1.125,-0.6875,-0.05810547,0.03076172,0.9672852,0.02783203,0.190918,-0.6889648
392,0.5,-0.6875,-0.1875,-0.05810547,0.02685547,0.9829102,0.02783203,0.190918,-0.6889648
393,0.1875,0.1875,-0.5,-0.05810547,0.04248047,0.9829102,0.03027344,0.1953125,-0.6875
394,0.375,0.125,-0.625,-0.06591797,0.04248047,0.9790039,0.03027344,0.1953125,-0.6875
395,0.5625,0,-0.375,-0.06201172,0.03076172,0.9672852,0.03027344,0.1953125,-0.6875
396,0.375,0.3125,-0.6875,-0.06201172,0.03076172,0.9907227,0.03027344,0.1860352,-0.6875
397,1.0625,0.0625,-0.625,-0.06982422,0.04248047,0.9672852,0.03027344,0.1860352,-0.6875
398,0.75,-0.125,-0.75,-0.06591797,0.04248047,0.9594727,0.03027344,0.1860352,-0.6875
399,1.0625,-0.125,-0.75,-0.06201172,0.05810547,0.9594727,0.02197266,0.1933594,-0.6918945
400,0.6875,0.5,-0.5,-0.06591797,0.04638672,0.9711914,0.02197266,0.1933594,-0.6918945
401,0.8125,0.1875,-0.9375,-0.06591797,0.05029297,0.9829102,0.02197266,0.1933594,-0.6918945
402,0.75,0.5,-0.625,-0.05419922,0.04638672,0.9868164,0.02197266,0.1933594,-0.6918945
403,0.625,0.5625,-0.8125,-0.06201172,0.04638672,0.9907227,0.02783203,0.1967773,-0.6821289
404,0.8125,0.5,-1,-0.05419922,0.01513672,0.9672852,0.02783203,0.1967773,-0.6821289
405,0.9375,0.4375,-0.75,-0.05419922,0.03466797,0.9750977,0.02783203,0.1967773,-0.6821289
406,0,-0.1875,-0.75,-0.05029297,0.03076172,0.9829102,0.02685547,0.1918945,-0.6835938
407,0.75,0,-0.9375,-0.05419922,0.03857422,0.9594727,0.02685547,0.1918945,-0.6835938
408,0.75,0.3125,-0.875,-0.05029297,0.01513672,0.9633789,0.02685547,0.1918945,-0.6835938
409,0.875,-0.125,-0.0625,-0.05029297,0.05029297,0.9946289,0.03027344,0.190918,-0.6889648
410,0.375,0,-0.625,-0.06201172,0.01513672,0.9829102,0.03027344,0.190918,-0.6889648
411,0.5625,0.5,-0.3125,-0.05419922,0.01513672,0.9594727,0.03027344,0.190918,-0.6889648
412,0.3125,-0.125,-0.75,-0.04638672,0.03466797,0.9633789,0.03027344,0.190918,-0.6889648
413,0.3125,-0.0625,-0.5625,-0.06201172,0.03076172,0.9750977,0.03369141,0.1918945,-0.6865234
414,0.625,-0.3125,-0.1875,-0.05029297,0.03857422,0.9555664,0.03369141,0.1918945,-0.6865234
415,0.375,-0.75,-0.75,-0.06201172,0.03857422,0.9790039,0.03369141,0.1918945,-0.6865234
416,0.5625,-0.5,-0.75,-0.05810547,0.03076172,0.9829102,0.02783203,0.1953125,-0.6865234
417,0.375,-0.0625,-0.3125,-0.04638672,0.01513672,0.9829102,0.02783203,0.1953125,-0.6865234
418,0.125,-0.5,-0.75,-0.06591797,0.05419922,0.9829102,0.02783203,0.1953125,-0.6865234
419,0.375,0.1875,-0.75,-0.05419922,0.01513672,0.9829102,0.02783203,0.1875,-0.6904297
420,0.5625,-0.1875,-0.75,-0.06982422,0.03857422,0.9633789,0.02783203,0.1875,-0.6904297
421,0.4375,-0.0625,-0.125,-0.06591797,0.04638672,0.9711914,0.02783203,0.1875,-0.6904297
422,0.875,-0.3125,-0.375,-0.05029297,0.03076172,0.9829102,0.02783203,0.1875,-0.6904297
423,0.375,0,-0.625,-0.05419922,0.03466797,0.9594727,0.02783203,0.190918,-0.6791992
424,0.125,0.3125,-0.5625,-0.04638672,0.03857422,0.9829102,0.02783203,0.190918,-0.6791992
425,0.75,-0.625,-0.625,-0.06982422,0.03466797,0.9633789,0.02783203,0.190918,-0.6791992
426,0.4375,0.4375,-0.75,-0.06591797,0.05029297,0.9672852,0.03369141,0.1933594,-0.6875
427,0.3125,0,-0.75,-0.04638672,0.03466797,0.9790039,0.03369141,0.1933594,-0.6875
428,0.1875,-0.0625,-0.6875,-0.05419922,0.02294922,0.9672852,0.03369141,0.1933594,-0.6875
429,0.3125,0.5,-0.75,-0.06982422,0.04638672,0.9829102,0.02099609,0.1967773,-0.6918945
430,0.4375,-0.125,-0.125,-0.04638672,0.03076172,0.9711914,0.02099609,0.1967773,-0.6918945
431,-0.375,-0.5,-0.5,-0.08935547,0.04248047,0.9633789,0.02099609,0.1967773,-0.6918945
432,0.25,-0.125,-0.25,-0.06982422,0.04248047,0.9633789,0.02099609,0.1967773,-0.6918945
433,0.3125,-0.4375,-0.25,-0.05419922,0.05419922,0.9633789,0.02099609,0.1967773,-0.6918945
434,0.5,0,-0.5625,-0.06982422,0.03857422,0.9868164,0.02099609,0.1967773,-0.6918945
435,0.625,-0.625,-0.9375,-0.06591797,0.02685547,0.9829102,0.02099609,0.1967773,-0.6918945
436,0.1875,-0.375,-0.5625,-0.05029297,0.04248047,0.9868164,0.0234375,0.1977539,-0.6962891
437,0.25,0.25,-0.8125,-0.06591797,0.02685547,0.9516602,0.0234375,0.1977539,-0.6962891
438,-0.125,0,-0.25,-0.06982422,0.03466797,0.9555664,0.0234375,0.1977539,-0.6962891
439,0.3125,-0.5625,-0.5,-0.05810547,0.03466797,0.9829102,0.0234375,0.1933594,-0.6904297
440,0.1875,0,-0.75,-0.05029297,0.03857422,0.9633789,0.0234375,0.1933594,-0.6904297
441,0.375,-0.125,-0.5,-0.05029297,0.05810547,0.9829102,0.0234375,0.1933594,-0.6904297
442,0.0625,-0.3125,-0.625,-0.05810547,0.04638672,0.9711914,0.0234375,0.1933594,-0.6904297
443,0.4375,0,-0.625,-0.05029297,0.02294922,0.9829102,0.0234375,0.1933594,-0.6904297
444,0,0.3125,-0.375,-0.08154297,0.03076172,0.9555664,0.0234375,0.1933594,-0.6904297
445,0.125,-0.5,-0.375,-0.06201172,0.03076172,0.9868164,0.0234375,0.1933594,-0.6904297
446,0.8125,0.1875,-0.25,-0.05419922,0.05029297,0.9711914,0.0234375,0.190918,-0.6850586
447,0.25,-0.3125,-0.75,-0.06591797,0.03076172,0.9555664,0.0234375,0.190918,-0.6850586
448,0.5625,-0.25,-0.5625,-0.06982422,0.03076172,0.9594727,0.0234375,0.190918,-0.6850586
449,0.5625,0.25,-0.0625,-0.06591797,0.01513672,0.9946289,0.03613281,0.1894531,-0.6865234
450,0.6875,-0.0625,-0.5625,-0.05419922,0.03076172,0.9868164,0.03613281,0.1894531,-0.6865234
451,0.1875,-0.375,-0.4375,-0.05810547,0.03857422,0.9829102,0.03613281,0.1894531,-0.6865234
452,0,0.1875,-0.625,-0.05029297,0.05029297,0.9711914,0.02441406,0.190918,-0.6777344
453,0,0.25,-0.9375,-0.06982422,0.05029297,0.9829102,0.02441406,0.190918,-0.6777344
454,0.5,0.1875,-0.4375,-0.08154297,0.03076172,0.9594727,0.02441406,0.190918,-0.6777344
455,0.375,-0.5,-1.125,-0.05029297,0.03076172,0.9672852,0.02441406,0.190918,-0.6777344
456,0.5625,-0.3125,-0.5,-0.06201172,0.03466797,0.9633789,0.02099609,0.1992188,-0.6850586
457,0,0.125,-0.25,-0.06591797,0.03857422,0.9672852,0.02099609,0.1992188,-0.6850586
458,0,-0.5625,-0.4375,-0.04248047,0.03857422,0.9750977,0.02099609,0.1992188,-0.6850586
459,0.75,-0.0625,-0.1875,-0.05810547,0.04248047,0.9516602,0.03271484,0.1953125,-0.6850586
460,0,0.0625,0,-0.05029297,0.03076172,0.9750977,0.03271484,0.1953125,-0.6850586
461,0,-0.0625,-0.375,-0.08154297,0.03857422,0.9477539,0.03271484,0.1953125,-0.6850586
462,0.0625,-0.375,-0.375,-0.05810547,0.03466797,0.9829102,0.02539063,0.1884766,-0.6791992
463,0.125,-0.1875,-0.375,-0.05810547,0.04638672,0.9633789,0.02539063,0.1884766,-0.6791992
464,-0.0625,-0.125,-0.8125,-0.07373047,0.03857422,0.9985352,0.02539063,0.1884766,-0.6791992
465,0.25,-0.5625,-0.8125,-0.06591797,0.03857422,0.9868164,0.02539063,0.1884766,-0.6791992
466,0.3125,-0.5625,-0.9375,-0.05419922,0.03466797,0.9829102,0.02539063,0.190918,-0.6865234
467,0,0.0625,-0.25,-0.04638672,0.04248047,0.9711914,0.02539063,0.190918,-0.6865234
468,0.1875,0,-0.625,-0.06201172,0.03076172,0.9633789,0.02539063,0.190918,-0.6865234
469,0.0625,0,-0.875,-0.05029297,0.03857422,0.9594727,0.02880859,0.190918,-0.6918945
470,0.375,0,-0.6875,-0.05810547,0.03076172,0.9829102,0.02880859,0.190918,-0.6918945
471,0.4375,-0.5,-0.125,-0.08935547,0.03857422,0.9750977,0.02880859,0.190918,-0.6918945
472,0.625,-0.3125,-0.5,-0.05810547,0.03076172,0.9321289,0.01611328,0.1967773,-0.6918945
473,0.75,-0.625,-0.625,-0.04638672,0.05029297,0.9750977,0.01611328,0.1967773,-0.6918945
474,0.0625,-0.125,-0.1875,-0.05810547,0.05029297,0.9672852,0.01611328,0.1967773,-0.6918945
475,-0.0625,0,-0.375,-0.05419922,0.04638672,0.9633789,0.01611328,0.1967773,-0.6918945
476,-0.125,0.0625,-0.4375,-0.04638672,0.05029297,0.9790039,0.01611328,0.1967773,-0.6918945
477,0.1875,0,-0.125,-0.06591797,0.03076172,0.9790039,0.01611328,0.1967773,-0.6918945
478,0.5,0,-0.5,-0.04638672,0.03076172,0.9477539,0.01611328,0.1967773,-0.6918945
479,0.5,-0.25,-0.5,-0.05029297,0.03857422,0.9829102,0.02539063,0.1943359,-0.6918945
480,0.5,-0.4375,-0.1875,-0.06201172,0.05029297,0.9907227,0.02539063,0.1943359,-0.6918945
481,0.5625,-0.125,-0.4375,-0.05029297,0.03857422,0.9750977,0.02539063,0.1943359,-0.6918945
482,0.3125,-0.5,-0.125,-0.05810547,0.03466797,0.9672852,0.02441406,0.1918945,-0.6865234
483,0.5625,-0.5625,-0.375,-0.05419922,0.05029297,0.9594727,0.02441406,0.1918945,-0.6865234
484,0,-0.125,-0.3125,-0.05810547,0.03857422,0.9633789,0.02441406,0.1918945,-0.6865234
485,0.5,-0.5625,-0.0625,-0.07763672,0.03076172,0.9672852,0.02441406,0.1918945,-0.6865234
486,0.1875,-0.25,-0.1875,-0.06201172,0.03857422,0.9711914,0.02441406,0.1918945,-0.6865234
487,0.0625,-0.125,-0.25,-0.05419922,0.03466797,0.9633789,0.02441406,0.1918945,-0.6865234
488,0.625,-0.1875,-0.625,-0.05810547,0.03076172,0.9829102,0.02441406,0.1918945,-0.6865234
489,-0.125,-0.25,-0.125,-0.07373047,0.03857422,0.9829102,0.02783203,0.190918,-0.6821289
490,0.5,-0.3125,-0.5,-0.05810547,0.05029297,0.9711914,0.02783203,0.190918,-0.6821289
491,0.5625,0.3125,-0.25,-0.07373047,0.01904297,0.9750977,0.02783203,0.190918,-0.6821289
492,0,-0.5,-0.25,-0.07373047,0.01513672,0.9868164,0.02197266,0.1943359,-0.6875
493,0.125,0,-0.375,-0.06201172,0.03076172,0.9633789,0.02197266,0.1943359,-0.6875
494,0,-0.4375,-0.5,-0.04248047,0.04248047,0.9477539,0.02197266,0.1943359,-0.6875
495,0.3125,0,-0.375,-0.05419922,0.01123047,0.9829102,0.02197266,0.1953125,-0.6821289
496,0.4375,-0.5625,-0.375,-0.05419922,0.03857422,0.9829102,0.02197266,0.1953125,-0.6821289
497,0,-0.5625,-0.5625,-0.05810547,0.01513672,0.9711914,0.02197266,0.1953125,-0.6821289
498,0.125,-0.375,-0.4375,-0.06201172,0.03857422,0.9633789,0.02197266,0.1953125,-0.6821289
499,-0.125,-0.0625,-0.3125,-0.03857422,0.03466797,0.9594727,0.02783203,0.1977539,-0.6918945
500,0,-0.5,-0.625,-0.05029297,0.02685547,0.9672852,0.02783203,0.1977539,-0.6918945
501,0,-0.8125,-0.3125,-0.07373047,0.04248047,0.9829102,0.02783203,0.1977539,-0.6918945
502,0.375,-0.125,-0.1875,-0.05810547,0.03466797,0.9711914,0.02880859,0.1884766,-0.6791992
503,-0.125,-0.125,-0.4375,-0.06201172,0.03857422,0.9438477,0.02880859,0.1884766,-0.6791992
504,0.0625,-0.8125,-0.0625,-0.06982422,0.05029297,0.9829102,0.02880859,0.1884766,-0.6791992
505,0,-0.8125,0.25,-0.05419922,0.01513672,0.9907227,0.02880859,0.190918,-0.6865234
506,-0.1875,-0.25,-0.5625,-0.05810547,0.03466797,0.9750977,0.02880859,0.190918,-0.6865234
507,0.125,-0.125,-0.5,-0.07373047,0.01513672,0.9633789,0.02880859,0.190918,-0.6865234
508,-0.0625,-0.8125,0.0625,-0.05419922,0.02685547,0.9594727,0.02880859,0.190918,-0.6865234
509,0.5,-0.625,-0.375,-0.05810547,0.04248047,0.9829102,0.02783203,0.1943359,-0.6875
510,0.375,-0.25,-0.6875,-0.05029297,0.04248047,0.9907227,0.02783203,0.1943359,-0.6875
511,0.25,-0.5,-0.1875,-0.05029297,0.04248047,0.9711914,0.02783203,0.1943359,-0.6875
512,0.5,-0.0625,-0.6875,-0.08935547,0.03466797,0.9633789,0.02441406,0.1918945,-0.6850586
513,-0.5625,-0.1875,-0.125,-0.06201172,0.03076172,0.9790039,0.02441406,0.1918945,-0.6850586
514,0.1875,-0.3125,-0.3125,-0.04638672,0.03076172,0.9750977,0.02441406,0.1918945,-0.6850586
515,0.375,-0.0625,-0.3125,-0.05810547,0.03857422,0.9829102,0.02441406,0.1933594,-0.6918945
516,0.1875,0.0625,-0.0625,-0.07373047,0.04248047,0.9868164,0.02441406,0.1933594,-0.6918945
517,0.25,0,-0.375,-0.06201172,0.04638672,0.9829102,0.02441406,0.1933594,-0.6918945
518,-0.25,-0.25,-0.4375,-0.05810547,0.02685547,0.9829102,0.02441406,0.1933594,-0.6918945
519,0.5,-0.6875,-0.5625,-0.05810547,0.05029297,0.9829102,0.02685547,0.1967773,-0.6904297
520,0.0625,-0.5,-0.25,-0.05419922,0.03076172,0.9750977,0.02685547,0.1967773,-0.6904297
521,0,-0.5625,-0.3125,-0.06591797,0.03076172,0.9672852,0.02685547,0.1967773,-0.6904297
522,0.0625,-0.375,-0.3125,-0.05419922,0.01513672,0.9750977,0.0234375,0.1943359,-0.6865234
523,0.25,-0.0625,-0.5,-0.06982422,0.007324219,0.9907227,0.0234375,0.1943359,-0.6865234
524,0.5625,0.1875,-0.3125,-0.06591797,0.03466797,0.9868164,0.0234375,0.1943359,-0.6865234
525,0.25,-0.4375,-0.125,-0.05419922,0.02685547,0.9829102,0.02685547,0.1875,-0.6835938
526,0.625,-0.375,0,-0.03857422,0.02685547,0.9829102,0.02685547,0.1875,-0.6835938
527,0.1875,-0.625,-0.625,-0.04638672,0.03466797,0.9985352,0.02685547,0.1875,-0.6835938
528,0.5,-0.625,-0.25,-0.06201172,0.03466797,0.9672852,0.02685547,0.1875,-0.6835938
529,0.5625,-0.125,-0.625,-0.06591797,0.01123047,0.9829102,0.02685547,0.1875,-0.6835938
530,0,0,0,-0.08154297,0.02685547,0.9516602,0.02685547,0.1875,-0.6835938
531,0,-0.0625,-0.3125,-0.05419922,0.01513672,0.9633789,0.02685547,0.1875,-0.6835938
532,0.8125,0,-0.6875,-0.05029297,0.05419922,0.9829102,0.03613281,0.1943359,-0.6904297
533,0.625,-0.0625,-0.5,-0.06591797,0.03076172,0.9711914,0.03613281,0.1943359,-0.6904297
534,0,-0.1875,-0.25,-0.04248047,0.05810547,0.9829102,0.03613281,0.1943359,-0.6904297
535,0.0625,-0.5,-0.25,-0.08154297,0.05029297,0.9711914,0.03027344,0.2001953,-0.6904297
536,0.0625,-0.5,-0.375,-0.06201172,0.03076172,0.9594727,0.03027344,0.2001953,-0.6904297
537,0.375,-0.625,-0.1875,-0.06591797,0.01904297,0.9829102,0.03027344,0.2001953,-0.6904297
538,0.3125,-0.125,-0.75,-0.05810547,0.04248047,0.9672852,0.03027344,0.2001953,-0.6904297
539,-0.0625,-0.5,-0.5,-0.04638672,0.03076172,0.9829102,0.03027344,0.2001953,-0.6904297
540,-0.1875,-0.125,-0.1875,-0.05029297,0.01513672,0.9711914,0.03027344,0.2001953,-0.6904297
541,0.25,-0.8125,-0.5,-0.05810547,0.04248047,0.9868164,0.03027344,0.2001953,-0.6904297
542,0,-0.25,-0.4375,-0.05419922,0.05810547,0.9750977,0.02880859,0.1943359,-0.6962891
543,0.1875,-0.25,-0.6875,-0.06201172,0.03076172,0.9750977,0.02880859,0.1943359,-0.6962891
544,0.5,-1,0,-0.06591797,0.04248047,0.9829102,0.02880859,0.1943359,-0.6962891
545,0.5625,-0.3125,-0.625,-0.05419922,0.03076172,0.9711914,0.02783203,0.1992188,-0.6791992
546,-0.0625,-0.75,-0.5625,-0.04638672,0.04248047,0.9672852,0.02783203,0.1992188,-0.6791992
547,0.0625,-0.5625,-0.25,-0.05419922,0.03076172,0.9711914,0.02783203,0.1992188,-0.6791992
548,0.5625,-0.125,-0.375,-0.04638672,0.04248047,0.9594727,0.02783203,0.1918945,-0.6875
549,-0.3125,0.0625,-0.625,-0.07373047,0.04638672,0.9477539,0.02783203,0.1918945,-0.6875
550,-0.0625,-0.25,-0.25,-0.06201172,0.02685547,0.9829102,0.02783203,0.1918945,-0.6875
551,0.25,-0.375,-0.6875,-0.05810547,0.04248047,0.9633789,0.02783203,0.1918945,-0.6875
552,-0.125,-0.5,-0.5,-0.04638672,0.05029297,0.9750977,0.0234375,0.1918945,-0.6821289
553,-0.5,-0.125,0.375,-0.06982422,0.01513672,0.9868164,0.0234375,0.1918945,-0.6821289
554,0.3125,-0.5625,-0.375,-0.06201172,0.04248047,0.9711914,0.0234375,0.1918945,-0.6821289
555,0.125,-0.8125,-0.5625,-0.06201172,0.02294922,0.9711914,0.02441406,0.1977539,-0.6918945
556,-0.125,-0.375,-0.1875,-0.05419922,0.04638672,0.9594727,0.02441406,0.1977539,-0.6918945
557,-0.1875,-0.5,0,-0.05810547,0.01513672,0.9633789,0.02441406,0.1977539,-0.6918945
558,0.5,-0.0625,-0.0625,-0.05419922,0.03076172,0.9672852,0.02539063,0.1992188,-0.6889648
559,0.5625,-0.625,-0.4375,-0.03857422,0.03076172,0.9672852,0.02539063,0.1992188,-0.6889648
560,-0.0625,0,-0.5625,-0.05029297,0.03466797,0.9555664,0.02539063,0.1992188,-0.6889648
561,0.375,0.4375,-0.0625,-0.05419922,0.04248047,0.9633789,0.02539063,0.1992188,-0.6889648
562,0.25,0,-0.1875,-0.06201172,0.04638672,0.9829102,0.02880859,0.1894531,-0.6865234
563,0,0,-0.3125,-0.04248047,0.03857422,0.9672852,0.02880859,0.1894531,-0.6865234
564,0.6875,0.1875,-0.625,-0.06591797,0.04248047,0.9672852,0.02880859,0.1894531,-0.6865234
565,0,0.1875,-0.9375,-0.06591797,0.02685547,0.9672852,0.02539063,0.2001953,-0.6889648
566,0.75,-0.0625,-0.5625,-0.05810547,0.03466797,0.9672852,0.02539063,0.2001953,-0.6889648
567,1.0625,0.8125,-0.625,-0.04638672,0.05029297,0.9672852,0.02539063,0.2001953,-0.6889648
568,0.6875,-0.0625,-0.625,-0.07373047,0.03466797,0.9555664,0.02539063,0.1992188,-0.6835938
569,0.0625,0.375,-0.5625,-0.05029297,0.01513672,0.9750977,0.02539063,0.1992188,-0.6835938
570,-0.0625,0.3125,-1.0625,-0.06201172,0.03466797,0.9711914,0.02539063,0.1992188,-0.6835938
571,0.5,0,-0.1875,-0.06591797,0.03076172,0.9750977,0.02539063,0.1992188,-0.6835938
572,0.0625,0,-0.5625,-0.06591797,0.04638672,0.9711914,0.02539063,0.1992188,-0.6835938
573,0.5625,0.125,-0.5,-0.05419922,0.03076172,0.9829102,0.02539063,0.1992188,-0.6835938
574,0.625,-0.0625,-0.5,-0.05029297,0.03466797,0.9790039,0.02539063,0.1992188,-0.6835938
575,0.4375,0,-0.625,-0.06201172,0.01513672,0.9829102,0.03466797,0.1918945,-0.6889648
576,0.375,0,-0.5625,-0.06982422,0.03076172,0.9829102,0.03466797,0.1918945,-0.6889648
577,0,0,-0.5625,-0.05810547,0.05029297,0.9868164,0.03466797,0.1918945,-0.6889648
578,0.375,0.4375,-0.6875,-0.05810547,0.04248047,0.9594727,0.02685547,0.1953125,-0.6806641
579,0.375,0.125,-0.3125,-0.05810547,0.03076172,0.9594727,0.02685547,0.1953125,-0.6806641
580,0.375,0.0625,-0.875,-0.06201172,0.02685547,0.9711914,0.02685547,0.1953125,-0.6806641
581,0.3125,-0.1875,-0.25,-0.04638672,0.03076172,1.001953,0.0234375,0.1977539,-0.6865234
582,0.625,-0.1875,-0.375,-0.06591797,0.03466797,0.9672852,0.0234375,0.1977539,-0.6865234
583,-0.0625,-0.3125,0,-0.06201172,0.05419922,0.9672852,0.0234375,0.1977539,-0.6865234
584,0.5625,-0.5,-0.3125,-0.04248047,0.04638672,0.9594727,0.0234375,0.1977539,-0.6865234
585,0.9375,-0.5,-0.0625,-0.05810547,0.03466797,0.9594727,0.02539063,0.1875,-0.6918945
586,0.5,-0.375,-0.375,-0.04638672,0.03466797,0.9750977,0.02539063,0.1875,-0.6918945
587,0,-0.25,-0.375,-0.05419922,0.03857422,0.9672852,0.02539063,0.1875,-0.6918945
588,0.5,-0.1875,0,-0.05810547,0.06591797,0.9829102,0.02783203,0.1884766,-0.6875
589,0.25,-0.8125,0.125,-0.05419922,0.03466797,0.9555664,0.02783203,0.1884766,-0.6875
590,0.375,-0.4375,-0.625,-0.06201172,0.02685547,0.9438477,0.02783203,0.1884766,-0.6875
591,-0.1875,0.0625,0,-0.03857422,0.03076172,0.9829102,0.03027344,0.1943359,-0.6850586
592,0.25,-0.125,-0.375,-0.06201172,0.06201172,0.9555664,0.03027344,0.1943359,-0.6850586
593,0.75,-0.9375,-0.4375,-0.06982422,0.02685547,0.9829102,0.03027344,0.1943359,-0.6850586
594,0.0625,-0.375,0.125,-0.05029297,0.04638672,0.9750977,0.03027344,0.1943359,-0.6850586
595,0.3125,0,-0.5625,-0.04248047,0.02294922,0.9711914,0.02099609,0.1875,-0.6806641
596,-0.3125,0.4375,-0.625,-0.06982422,0.03466797,0.9594727,0.02099609,0.1875,-0.6806641
597,0.3125,-0.1875,0,-0.04248047,0.03466797,0.9672852,0.02099609,0.1875,-0.6806641
598,0.4375,0.0625,-0.3125,-0.06201172,0.04638672,0.9594727,0.02441406,0.1953125,-0.6933594
599,0.375,-0.4375,-0.75,-0.03466797,0.03076172,0.9633789,0.02441406,0.1953125,-0.6933594
600,0.4375,-0.5,-0.75,-0.06982422,0.03076172,0.9829102,0.02441406,0.1953125,-0.6933594
601,0.25,-0.5625,-0.3125,-0.05419922,0.03466797,0.9672852,0.02783203,0.1918945,-0.6987305
602,0.4375,-0.375,-0.25,-0.05419922,0.01513672,0.9711914,0.02783203,0.1918945,-0.6987305
603,0.3125,-0.625,-1.125,-0.06201172,0.01513672,0.9477539,0.02783203,0.1918945,-0.6987305
604,0.1875,-0.0625,-0.375,-0.06982422,0.03076172,0.9790039,0.02783203,0.1918945,-0.6987305
605,-0.1875,-0.125,-0.5625,-0.06201172,0.01513672,0.9711914,0.0234375,0.1953125,-0.6904297
606,0.625,0.0625,-0.5,-0.04638672,0.01513672,0.9829102,0.0234375,0.1953125,-0.6904297
607,0.375,-0.125,-0.375,-0.05810547,0.06591797,0.9555664,0.0234375,0.1953125,-0.6904297
608,0.25,0.125,-0.6875,-0.06201172,0.05419922,0.9907227,0.02880859,0.1894531,-0.6821289
609,0.3125,0.3125,-0.25,-0.06591797,0.04248047,0.9555664,0.02880859,0.1894531,-0.6821289
610,0.625,0.5,-0.875,-0.07373047,0.05029297,0.9555664,0.02880859,0.1894531,-0.6821289
611,0.5,-0.6875,-0.375,-0.07373047,0.03466797,0.9672852,0.02880859,0.1884766,-0.6918945
612,0.4375,-0.4375,-0.875,-0.06201172,0.05029297,0.9868164,0.02880859,0.1884766,-0.6918945
613,0.1875,-0.125,-0.375,-0.06982422,0.03076172,0.9829102,0.02880859,0.1884766,-0.6918945
614,0.3125,-0.1875,-0.6875,-0.05810547,0.02685547,0.9711914,0.02880859,0.1884766,-0.6918945
615,0.0625,0.3125,0.0625,-0.05810547,0.03466797,0.9750977,0.02880859,0.1884766,-0.6918945
616,0.625,-0.0625,-0.4375,-0.05419922,0.03466797,0.9633789,0.02880859,0.1884766,-0.6918945
617,0.1875,-0.125,-0.625,-0.05419922,0.04248047,0.9555664,0.02880859,0.1884766,-0.6918945
618,0.8125,0.125,-0.5,-0.05810547,0.05810547,0.9868164,0.01953125,0.1875,-0.6806641
619,0.5,-0.5625,-0.6875,-0.04248047,0.03076172,0.9711914,0.01953125,0.1875,-0.6806641
620,0.25,0.1875,-0.4375,-0.06982422,0.03857422,0.9672852,0.01953125,0.1875,-0.6806641
621,0.1875,-0.25,-0.5625,-0.04638672,0.03076172,0.9829102,0.02685547,0.190918,-0.6875
622,0.8125,-0.5,-0.5,-0.06982422,0.03076172,0.9633789,0.02685547,0.190918,-0.6875
623,0.4375,-0.375,-0.6875,-0.06201172,0.03076172,0.9672852,0.02685547,0.190918,-0.6875
624,0.125,0.1875,-0.5,-0.06591797,0.02685547,0.9829102,0.02685547,0.190918,-0.6875
625,0.125,-0.0625,-0.625,-0.05029297,0.04248047,0.9868164,0.02685547,0.190918,-0.6875
626,0.3125,-0.125,-0.625,-0.05419922,0.03857422,0.9711914,0.02685547,0.190918,-0.6875
627,0.4375,0.3125,-0.625,-0.08154297,0.01513672,0.9555664,0.02685547,0.190918,-0.6875
628,0.1875,0.125,-0.5,-0.05419922,0.02294922,0.9829102,0.02880859,0.190918,-0.6865234
629,-0.0625,0,-1.125,-0.06591797,0.04248047,0.9868164,0.02880859,0.190918,-0.6865234
630,0.4375,0,-0.3125,-0.04638672,0.03857422,0.9477539,0.02880859,0.190918,-0.6865234
631,0.0625,0.0625,-0.875,-0.06591797,0.03857422,0.9594727,0.03125,0.1967773,-0.6918945
632,0.4375,-0.375,-0.5625,-0.04248047,0.04638672,0.9516602,0.03125,0.1967773,-0.6918945
633,0.625,-0.375,-0.6875,-0.05419922,0.02685547,0.9633789,0.03125,0.1967773,-0.6918945
634,0.125,0.125,-0.75,-0.05029297,0.03076172,0.9907227,0.02197266,0.1967773,-0.6904297
635,0.875,-0.1875,-0.625,-0.07373047,0.04638672,0.9829102,0.02197266,0.1967773,-0.6904297
636,0.9375,0,-0.625,-0.05810547,0.03466797,0.9711914,0.02197266,0.1967773,-0.6904297
637,0.25,0.125,-0.8125,-0.06201172,0.03466797,0.9868164,0.02197266,0.1967773,-0.6904297
638,0.5625,-0.375,-0.75,-0.06591797,0.01513672,0.9711914,0.03027344,0.1953125,-0.6791992
639,0.625,0.25,-0.375,-0.05419922,0.03857422,0.9672852,0.03027344,0.1953125,-0.6791992
640,0.125,0,-0.1875,-0.06201172,0.05419922,0.9516602,0.03027344,0.1953125,-0.6791992
641,0.25,-0.125,-0.9375,-0.05419922,0.03857422,0.9711914,0.03125,0.1992188,-0.6865234
642,0.375,-0.1875,-0.3125,-0.06982422,0.02685547,0.9711914,0.03125,0.1992188,-0.6865234
643,0.3125,-0.3125,-1.125,-0.06201172,0.01513672,0.9829102,0.03125,0.1992188,-0.6865234
644,0.375,-0.125,-0.5,-0.05419922,0.03076172,0.9907227,0.02783203,0.1967773,-0.6918945
645,0.625,-0.25,-0.4375,-0.04638672,0.03857422,0.9516602,0.02783203,0.1967773,-0.6918945
646,0.25,0.1875,-0.875,-0.05029297,0.04248047,0.9907227,0.02783203,0.1967773,-0.6918945
647,0.5,-0.4375,-0.625,-0.07373047,0.03076172,0.9672852,0.02783203,0.1967773,-0.6918945
648,0.375,0.0625,-0.8125,-0.06201172,0.02294922,0.9750977,0.0234375,0.1967773,-0.6948242
649,0.625,-0.0625,-0.375,-0.05810547,0.03857422,0.9555664,0.0234375,0.1967773,-0.6948242
650,0.375,0,-0.75,-0.04638672,0.04248047,0.9790039,0.0234375,0.1967773,-0.6948242
651,0.4375,-0.25,-0.4375,-0.06201172,0.04638672,0.9711914,0.02441406,0.1943359,-0.6850586
652,0.5,0.25,-0.375,-0.05810547,0.04248047,0.9321289,0.02441406,0.1943359,-0.6850586
653,0.1875,-0.1875,-0.5,-0.04638672,0.01513672,0.9711914,0.02441406,0.1943359,-0.6850586
654,0.6875,0.6875,-0.5625,-0.04248047,0.03076172,0.9711914,0.02197266,0.1977539,-0.6850586
655,0.1875,0,-0.5625,-0.05419922,0.03076172,0.9711914,0.02197266,0.1977539,-0.6850586
656,0.375,0.125,-0.6875,-0.04638672,0.01123047,0.9829102,0.02197266,0.1977539,-0.6850586
657,0.4375,0,-0.5,-0.03076172,0.04638672,0.9907227,0.02197266,0.1977539,-0.6850586
658,0.6875,0,-0.1875,-0.05029297,0.03076172,0.9907227,0.02197266,0.1977539,-0.6850586
659,0.625,0.1875,-0.9375,-0.05810547,0.03076172,0.9711914,0.02197266,0.1977539,-0.6850586
660,0.625,0.0625,-0.5,-0.07373047,0.03076172,0.9633789,0.02197266,0.1977539,-0.6850586
661,0.4375,0.1875,-0.75,-0.05029297,0.02294922,0.9555664,0.02539063,0.190918,-0.6948242
662,0.4375,0.3125,-0.6875,-0.06591797,0.03857422,0.9868164,0.02539063,0.190918,-0.6948242
663,0.625,-0.125,-0.1875,-0.05419922,0.02685547,0.9907227,0.02539063,0.190918,-0.6948242
664,0.0625,-0.5625,-0.1875,-0.05419922,0.05029297,0.9829102,0.02197266,0.1992188,-0.6850586
665,0.4375,0.0625,-0.5625,-0.05810547,0.04638672,0.9672852,0.02197266,0.1992188,-0.6850586
666,0.3125,0,-0.5625,-0.05419922,0.04248047,0.9711914,0.02197266,0.1992188,-0.6850586
667,0.4375,-0.3125,-0.3125,-0.05419922,0.05810547,0.9790039,0.02197266,0.1992188,-0.6850586
668,0.4375,-0.1875,-0.75,-0.04638672,0.03466797,0.9868164,0.02197266,0.1992188,-0.6850586
669,0.25,-0.0625,-0.4375,-0.05029297,0.03466797,0.9750977,0.02197266,0.1992188,-0.6850586
670,-0.25,0.0625,-0.5625,-0.04638672,0.03466797,0.9750977,0.02197266,0.1992188,-0.6850586
671,0.875,0.4375,0.0625,-0.05810547,0.03076172,0.9477539,0.02197266,0.1967773,-0.6904297
672,0.5,0.3125,-0.625,-0.04638672,0.03857422,0.9829102,0.02197266,0.1967773,-0.6904297
673,0.8125,-0.0625,-0.125,-0.06591797,0.01904297,0.9555664,0.02197266,0.1967773,-0.6904297
674,0.625,-0.1875,-0.6875,-0.04638672,0.01904297,0.9711914,0.02539063,0.1918945,-0.6875
675,0.5625,0.75,-0.5625,-0.06591797,0.02685547,1.001953,0.02539063,0.1918945,-0.6875
676,1.0625,0.125,-0.625,-0.05810547,0.03857422,0.9672852,0.02539063,0.1918945,-0.6875
677,0,0.0625,-0.8125,-0.06591797,0.05029297,0.9633789,0.01953125,0.1943359,-0.6865234
678,0.5,0,-0.625,-0.05810547,0.03857422,0.9829102,0.01953125,0.1943359,-0.6865234
679,0.4375,0.0625,-0.375,-0.05419922,0.03076172,0.9985352,0.01953125,0.1943359,-0.6865234
680,0.5,0,-0.9375,-0.05029297,0.05029297,0.9633789,0.01953125,0.1943359,-0.6865234
681,0.3125,0.3125,-0.3125,-0.05029297,0.04638672,0.9907227,0.02539063,0.1967773,-0.6875
682,0.4375,0.5625,-0.75,-0.06591797,0.03857422,0.9946289,0.02539063,0.1967773,-0.6875
683,0.875,0.375,-0.9375,-0.04638672,0.03857422,0.9516602,0.02539063,0.1967773,-0.6875
684,0.8125,0.25,-0.75,-0.05029297,0.01513672,0.9594727,0.02197266,0.1918945,-0.6865234
685,0.75,0.5625,-0.75,-0.05810547,0.03857422,0.9790039,0.02197266,0.1918945,-0.6865234
686,0.625,0.25,-0.0625,-0.06201172,0.03857422,0.9829102,0.02197266,0.1918945,-0.6865234
687,0.3125,0.125,-0.75,-0.05029297,0.03466797,0.9829102,0.02685547,0.1977539,-0.6821289
688,0.3125,-0.25,-0.5625,-0.03857422,0.03857422,0.9633789,0.02685547,0.1977539,-0.6821289
689,0.375,0,-0.625,-0.04638672,0.01513672,0.9672852,0.02685547,0.1977539,-0.6821289
690,0.25,0,-0.25,-0.05029297,0.03076172,0.9868164,0.02685547,0.1977539,-0.6821289
691,0.6875,-0.75,-1.125,-0.05419922,0.01513672,0.9946289,0.02441406,0.1992188,-0.6865234
692,0.8125,0,-0.5,-0.06201172,0.03857422,0.9750977,0.02441406,0.1992188,-0.6865234
693,0.6875,-0.0625,-0.625,-0.05419922,0.03076172,0.9633789,0.02441406,0.1992188,-0.6865234
694,0.25,-0.0625,-0.1875,-0.04248047,0.03466797,0.9946289,0.03027344,0.1933594,-0.6948242
695,0.25,0.1875,-0.0625,-0.06591797,0.03466797,0.9829102,0.03027344,0.1933594,-0.6948242
696,0.375,0.0625,-0.875,-0.06201172,0.03466797,0.9633789,0.03027344,0.1933594,-0.6948242
697,0.3125,0,-0.8125,-0.05810547,0.05810547,0.9711914,0.03369141,0.190918,-0.6821289
698,0.3125,-0.3125,-0.3125,-0.05810547,0.05029297,0.9555664,0.03369141,0.190918,-0.6821289
699,0.5,-0.25,-1.125,-0.04248047,0.05810547,0.9829102,0.03369141,0.190918,-0.6821289
700,0.375,-0.3125,-0.625,-0.06201172,0.04638672,0.9829102,0.03369141,0.190918,-0.6821289
701,0.25,0.125,-0.3125,-0.05419922,0.04248047,0.9829102,0.02783203,0.1967773,-0.6875
702,0.5,0.0625,-0.625,-0.05419922,0.03076172,0.9672852,0.02783203,0.1967773,-0.6875
703,0.5625,0.25,-0.4375,-0.06201172,0.01123047,0.9711914,0.02783203,0.1967773,-0.6875
704,0.3125,0.125,-0.6875,-0.06201172,0.01513672,0.9555664,0.02539063,0.1953125,-0.6850586
705,0.375,0,-0.5625,-0.03857422,0.02294922,0.9711914,0.02539063,0.1953125,-0.6850586
706,0.3125,0.25,-0.5625,-0.06591797,0.03857422,0.9829102,0.02539063,0.1953125,-0.6850586
707,0.6875,0.1875,-0.5,-0.06201172,0.03076172,0.9829102,0.02685547,0.1977539,-0.6889648
708,0.625,0.5,-0.625,-0.05810547,0.01513672,0.9672852,0.02685547,0.1977539,-0.6889648
709,0.4375,0,-1.0625,-0.05810547,0.01513672,0.9633789,0.02685547,0.1977539,-0.6889648
710,0.4375,0.0625,-0.6875,-0.06591797,0.02685547,0.9594727,0.02685547,0.1977539,-0.6889648
711,0.3125,-0.375,-0.625,-0.08154297,0.04638672,0.9907227,0.02685547,0.1977539,-0.6889648
712,0.4375,0,-0.875,-0.06982422,0.01513672,0.9946289,0.02685547,0.1977539,-0.6889648
713,0.8125,0,-0.6875,-0.05810547,0.01513672,0.9555664,0.02685547,0.1977539,-0.6889648
714,0.5,0.1875,-0.4375,-0.05810547,0.02294922,0.9750977,0.02099609,0.1967773,-0.6904297
715,0.5,-0.25,-0.6875,-0.05810547,0.03466797,0.9868164,0.02099609,0.1967773,-0.6904297
716,0.25,-0.0625,-0.375,-0.03857422,0.01513672,0.9672852,0.02099609,0.1967773,-0.6904297
717,0.375,-0.3125,-0.3125,-0.06591797,0.01513672,0.9672852,0.02197266,0.1943359,-0.6889648
718,0.375,0.75,-0.875,-0.05029297,0.03857422,0.9711914,0.02197266,0.1943359,-0.6889648
719,0.4375,0.1875,-0.8125,-0.08154297,0.03857422,0.9750977,0.02197266,0.1943359,-0.6889648
720,0.6875,-0.1875,-0.5,-0.06591797,0.03857422,0.9750977,0.02197266,0.1943359,-0.6889648
721,0.5,0.1875,-0.625,-0.06201172,0.02294922,0.9594727,0.02197266,0.1943359,-0.6889648
722,0.6875,0,-0.4375,-0.06591797,0.02685547,0.9633789,0.02197266,0.1943359,-0.6889648
723,0.75,-0.0625,-0.5625,-0.05419922,0.02685547,0.9711914,0.02197266,0.1943359,-0.6889648
724,0.1875,-0.0625,-0.25,-0.05419922,0.02685547,0.9555664,0.03027344,0.1918945,-0.6865234
725,0.6875,0.125,-0.3125,-0.04638672,0.01513672,0.9711914,0.03027344,0.1918945,-0.6865234
726,0.1875,-0.25,-0.375,-0.05810547,0.03466797,0.9750977,0.03027344,0.1918945,-0.6865234
727,0,-0.0625,-0.125,-0.05810547,0.03466797,0.9868164,0.0234375,0.1977539,-0.6948242
728,0.25,0,-0.125,-0.06591797,0.03076172,0.9829102,0.0234375,0.1977539,-0.6948242
729,0.8125,-0.5625,-0.375,-0.03466797,0.03857422,0.9985352,0.0234375,0.1977539,-0.6948242
730,0.125,-0.0625,-0.5625,-0.05419922,0.03076172,0.9750977,0.03369141,0.1953125,-0.6835938
731,0.6875,-0.3125,-0.6875,-0.06591797,0.03857422,0.9829102,0.03369141,0.1953125,-0.6835938
732,0.1875,-0.125,-0.25,-0.06591797,0.03466797,0.9907227,0.03369141,0.1953125,-0.6835938
733,0.6875,0.125,-0.375,-0.05029297,0.04638672,0.9672852,0.03369141,0.1953125,-0.6835938
734,0,-0.3125,-0.5,-0.07373047,0.01513672,0.9555664,0.02539063,0.2026367,-0.6865234
735,0.5,0.25,-0.5625,-0.05419922,0.04638672,0.9633789,0.02539063,0.2026367,-0.6865234
736,-0.1875,0,-0.4375,-0.07373047,0.03857422,0.9633789,0.02539063,0.2026367,-0.6865234
737,0.5625,-0.4375,-0.1875,-0.06201172,0.03466797,0.9477539,0.02099609,0.1943359,-0.6850586
738,0.125,0.625,-0.25,-0.03466797,0.01513672,0.9594727,0.02099609,0.1943359,-0.6850586
739,0.5625,-0.5,-0.3125,-0.06591797,0.02685547,0.9477539,0.02099609,0.1943359,-0.6850586
740,0.3125,0.0625,-0.9375,-0.06591797,0.04248047,0.9672852,0.01953125,0.1977539,-0.6791992
741,0.9375,0.3125,-1.0625,-0.03857422,0.01513672,0.9868164,0.01953125,0.1977539,-0.6791992
742,-0.125,0.1875,-0.625,-0.06591797,0.03466797,0.9829102,0.01953125,0.1977539,-0.6791992
743,0.1875,-0.375,-0.625,-0.06201172,0.04248047,0.9829102,0.01953125,0.1977539,-0.6791992
744,0.4375,-0.125,-0.4375,-0.04248047,0.02685547,0.9868164,0.02197266,0.1953125,-0.6850586
745,1.0625,0.0625,-0.5,-0.06982422,0.03857422,0.9477539,0.02197266,0.1953125,-0.6850586
746,0,0.1875,-1.0625,-0.05810547,0.02685547,0.9868164,0.02197266,0.1953125,-0.6850586
747,0.9375,0,-0.625,-0.04638672,0.04248047,0.9516602,0.02539063,0.1977539,-0.6865234
748,0.4375,0.4375,-0.5625,-0.05029297,0.01123047,0.9790039,0.02539063,0.1977539,-0.6865234
749,0.75,0.25,-1.1875,-0.06982422,0.03076172,0.9985352,0.02539063,0.1977539,-0.6865234
750,0.6875,0.625,-0.5625,-0.04248047,0.04248047,0.9633789,0.02099609,0.190918,-0.6865234
751,1.1875,0.5,-0.625,-0.05419922,0.02685547,0.9907227,0.02099609,0.190918,-0.6865234
752,0.375,0.1875,-0.75,-0.05419922,0.03076172,0.9829102,0.02099609,0.190918,-0.6865234
753,0.9375,0.125,-0.8125,-0.05810547,0.04248047,0.9829102,0.02099609,0.190918,-0.6865234
754,0.125,0.5,-0.625,-0.07373047,0.02294922,0.9672852,0.02099609,0.190918,-0.6865234
755,0.75,-0.25,-0.375,-0.06201172,0.01513672,0.9711914,0.02099609,0.190918,-0.6865234
756,0.5625,0.4375,-0.4375,-0.04638672,0.05029297,0.9438477,0.02099609,0.190918,-0.6865234
757,0.625,-0.125,-0.5625,-0.05810547,0.03466797,0.9672852,0.02685547,0.1933594,-0.6850586
758,0.5,0.25,-0.5625,-0.06201172,0.04638672,0.9672852,0.02685547,0.1933594,-0.6850586
759,0.4375,0,-0.625,-0.06201172,0.04248047,0.9829102,0.02685547,0.1933594,-0.6850586
760,0.625,0.25,-0.6875,-0.05029297,0.02685547,0.9555664,0.02539063,0.1967773,-0.6889648
761,0.25,-0.1875,-0.5,-0.05419922,0.02294922,0.9868164,0.02539063,0.1967773,-0.6889648
762,0.8125,-0.125,-1.0625,-0.06201172,0.03076172,0.9672852,0.02539063,0.1967773,-0.6889648
763,0.9375,-0.375,-0.1875,-0.05810547,0.05029297,0.9907227,0.02539063,0.1967773,-0.6889648
764,0.3125,0.1875,-0.8125,-0.05810547,0.02685547,0.9594727,0.02539063,0.1967773,-0.6889648
765,0.6875,0.3125,-0.25,-0.07763672,0.02294922,0.9711914,0.02539063,0.1967773,-0.6889648
766,0,0.5,-0.8125,-0.06591797,0.05029297,0.9594727,0.02539063,0.1967773,-0.6889648
767,0.3125,0,-1.25,-0.06201172,0.03466797,0.9555664,0.02441406,0.1894531,-0.6865234
768,0.4375,0.125,-0.9375,-0.04638672,0.03857422,0.9829102,0.02441406,0.1894531,-0.6865234
769,0.5,0.25,-0.375,-0.04638672,0.04248047,0.9829102,0.02441406,0.1894531,-0.6865234
770,0.1875,-0.25,-0.25,-0.06201172,0.04638672,0.9711914,0.02197266,0.1884766,-0.6904297
771,0.4375,0,-1.3125,-0.03857422,0.01513672,0.9829102,0.02197266,0.1884766,-0.6904297
772,0.5,-0.0625,-0.5,-0.05029297,0.03076172,0.9672852,0.02197266,0.1884766,-0.6904297
773,0.5,0,-0.25,-0.06591797,0.03076172,0.9790039,0.02441406,0.1933594,-0.6904297
774,0.25,0.4375,-0.9375,-0.06591797,0.04248047,0.9672852,0.02441406,0.1933594,-0.6904297
775,0.3125,0.5625,-0.4375,-0.03857422,0.04248047,0.9868164,0.02441406,0.1933594,-0.6904297
776,0.1875,0.125,-0.875,-0.05810547,0.02294922,0.9633789,0.02441406,0.1933594,-0.6904297
777,0.75,0.4375,-0.5625,-0.06201172,0.04638672,0.9790039,0.02539063,0.1953125,-0.6889648
778,0,-0.0625,-0.1875,-0.04638672,0.03076172,0.9672852,0.02539063,0.1953125,-0.6889648
779,0.625,-0.0625,-0.75,-0.06982422,0.03857422,0.9907227,0.02539063,0.1953125,-0.6889648
780,0.375,0.0625,-0.3125,-0.05810547,0.03076172,0.9672852,0.0234375,0.1918945,-0.6875
781,0.1875,-0.0625,-0.375,-0.05419922,0.03857422,0.9711914,0.0234375,0.1918945,-0.6875
782,0.125,-0.3125,-0.8125,-0.06982422,0.02685547,0.9829102,0.0234375,0.1918945,-0.6875
783,1,-0.25,-0.1875,-0.05810547,0.05029297,0.9790039,0.03027344,0.1953125,-0.6972656
784,0,0.1875,-0.4375,-0.05810547,0.06201172,0.9594727,0.03027344,0.1953125,-0.6972656
785,0.1875,0.25,-0.5,-0.05810547,0.02685547,0.9868164,0.03027344,0.1953125,-0.6972656
786,0.3125,-0.0625,-0.9375,-0.05029297,0.02685547,0.9672852,0.03027344,0.1953125,-0.6972656
787,0.0625,0.125,-0.5625,-0.04248047,0.01513672,0.9594727,0.02441406,0.1992188,-0.6889648
788,0.125,0.4375,-0.375,-0.06982422,0.05029297,0.9829102,0.02441406,0.1992188,-0.6889648
789,0.75,0.125,-0.625,-0.05810547,0.03076172,0.9829102,0.02441406,0.1992188,-0.6889648
790,0.25,0,0,-0.06591797,0.04248047,0.9711914,0.02197266,0.1918945,-0.6865234
791,0.8125,-0.3125,-0.625,-0.05419922,0.05419922,0.9594727,0.02197266,0.1918945,-0.6865234
792,0.5,0.3125,-0.6875,-0.05810547,0.04248047,0.9946289,0.02197266,0.1918945,-0.6865234
793,0.3125,-0.375,-0.6875,-0.06201172,0.03857422,0.9594727,0.02783203,0.1918945,-0.6865234
794,1,0.3125,-0.625,-0.06201172,0.05029297,0.9711914,0.02783203,0.1918945,-0.6865234
795,0.25,0.25,-0.5625,-0.05810547,0.04638672,0.9633789,0.02783203,0.1918945,-0.6865234
796,-0.25,0.0625,-0.5625,-0.06591797,0.05029297,0.9594727,0.02783203,0.1918945,-0.6865234
797,0.375,0,-0.3125,-0.06591797,0.04638672,0.9985352,0.02783203,0.1918945,-0.6865234
798,1.0625,-0.3125,-0.375,-0.06591797,0.03466797,0.9868164,0.02783203,0.1918945,-0.6865234
799,-0.0625,-0.0625,-0.0625,-0.05029297,0.04248047,0.9829102,0.02783203,0.1918945,-0.6865234
800,0.6875,0.25,-0.25,-0.06591797,0.05029297,0.9829102,0.02685547,0.1977539,-0.6821289
801,0.3125,0.0625,-0.1875,-0.06591797,0.03466797,0.9672852,0.02685547,0.1977539,-0.6821289
802,0.5625,-0.375,-0.25,-0.08154297,0.01513672,0.9711914,0.02685547,0.1977539,-0.6821289
803,0.75,-0.375,-0.5625,-0.05419922,0.01513672,0.9711914,0.02880859,0.1943359,-0.6875
804,0.5625,-0.0625,-0.5,-0.05810547,0.01513672,0.9633789,0.02880859,0.1943359,-0.6875
805,0.5,-0.375,0,-0.04638672,0.03076172,0.9829102,0.02880859,0.1943359,-0.6875
806,0.25,0.125,-0.3125,-0.06201172,0.03466797,0.9829102,0.02880859,0.1943359,-0.6875
807,0.375,-0.125,-0.6875,-0.05810547,0.04638672,0.9672852,0.02880859,0.1943359,-0.6875
808,0.6875,-0.25,-0.5,-0.06591797,0.04638672,0.9711914,0.02880859,0.1943359,-0.6875
809,0.4375,0,0,-0.06201172,0.04248047,0.9750977,0.02880859,0.1943359,-0.6875
810,0.4375,-0.125,-0.6875,-0.06982422,0.03857422,0.9985352,0.02880859,0.1933594,-0.6918945
811,0.8125,0,-0.25,-0.05419922,0.04248047,0.9672852,0.02880859,0.1933594,-0.6918945
812,0.25,-0.1875,-0.0625,-0.05810547,0.02685547,0.9633789,0.02880859,0.1933594,-0.6918945
813,0.4375,0,-0.8125,-0.05029297,0.03076172,0.9672852,0.02685547,0.1953125,-0.6865234
814,0.5625,-0.375,-0.625,-0.04248047,0.03466797,0.9633789,0.02685547,0.1953125,-0.6865234
815,0.0625,-0.5625,-0.75,-0.06982422,0.04248047,0.9672852,0.02685547,0.1953125,-0.6865234
816,0.375,-0.4375,-0.5,-0.05029297,0.03857422,0.9907227,0.02685547,0.1826172,-0.6904297
817,0.25,-0.25,-0.5,-0.06591797,0.02294922,0.9555664,0.02685547,0.1826172,-0.6904297
818,0,-0.125,-0.3125,-0.05419922,0.05419922,0.9711914,0.02685547,0.1826172,-0.6904297
819,0.375,-0.3125,-0.875,-0.04638672,0.02685547,0.9633789,0.02685547,0.1826172,-0.6904297
820,0.375,-0.375,-0.125,-0.05029297,0.04248047,0.9594727,0.02783203,0.1884766,-0.6865234
821,0.875,-0.25,-0.5625,-0.04248047,0.04248047,0.9555664,0.02783203,0.1884766,-0.6865234
822,0.5,-0.5625,-0.75,-0.06201172,0.03466797,0.9829102,0.02783203,0.1884766,-0.6865234
823,0.5,0,-0.5625,-0.05029297,0.02685547,0.9829102,0.02685547,0.1918945,-0.6875
824,0.4375,0.0625,-0.4375,-0.06201172,0.04638672,0.9829102,0.02685547,0.1918945,-0.6875
825,0.6875,-0.375,-0.1875,-0.07763672,0.03857422,0.9829102,0.02685547,0.1918945,-0.6875
826,0.4375,0.375,-0.6875,-0.06591797,0.05810547,0.9829102,0.02880859,0.1992188,-0.6904297
827,0,-0.1875,-0.1875,-0.05029297,0.03857422,0.9829102,0.02880859,0.1992188,-0.6904297
828,0.5625,0.125,-0.6875,-0.06591797,0.03857422,0.9555664,0.02880859,0.1992188,-0.6904297
829,0.125,0.4375,-0.5,-0.04638672,0.04638672,0.9555664,0.02880859,0.1992188,-0.6904297
830,0.875,-0.25,-0.5625,-0.04638672,0.02294922,0.9829102,0.03027344,0.1953125,-0.6865234
831,0,0.0625,-0.5625,-0.05419922,0.04248047,0.9711914,0.03027344,0.1953125,-0.6865234
832,0.5625,-0.125,-0.625,-0.06201172,0.04248047,0.9829102,0.03027344,0.1953125,-0.6865234
833,0.375,0,-0.5,-0.06591797,0.02685547,0.9829102,0.02539063,0.1943359,-0.6791992
834,0.375,-0.125,-0.625,-0.06201172,0.06201172,0.9868164,0.02539063,0.1943359,-0.6791992
835,0.25,-0.0625,-0.625,-0.07373047,0.03857422,0.9750977,0.02539063,0.1943359,-0.6791992
836,0,-0.4375,-0.1875,-0.06201172,0.01123047,0.9711914,0.0234375,0.1894531,-0.6850586
837,0.375,0,-0.1875,-0.07763672,0.03857422,0.9829102,0.0234375,0.1894531,-0.6850586
838,0.5625,-0.4375,-1.0625,-0.05419922,0.04638672,0.9633789,0.0234375,0.1894531,-0.6850586
839,0.375,-0.4375,-0.5625,-0.06201172,0.03076172,0.9790039,0.0234375,0.1894531,-0.6850586
840,0.3125,-0.5625,-0.3125,-0.06591797,0.03466797,0.9672852,0.0234375,0.1894531,-0.6850586
841,0,-0.375,-0.75,-0.05810547,0.03857422,0.9829102,0.0234375,0.1894531,-0.6850586
842,0.1875,-0.1875,-0.875,-0.06201172,0.05029297,0.9672852,0.0234375,0.1894531,-0.6850586
843,0.875,0.125,-0.3125,-0.05419922,0.03076172,0.9555664,0.02783203,0.1967773,-0.6791992
844,0.625,0.125,-0.5625,-0.05029297,0.04248047,0.9633789,0.02783203,0.1967773,-0.6791992
845,0.1875,0.125,-0.6875,-0.05419922,0.02294922,0.9477539,0.02783203,0.1967773,-0.6791992
846,0.1875,-0.25,-0.4375,-0.04248047,0.03466797,0.9829102,0.03027344,0.190918,-0.6850586
847,0.75,-0.0625,-0.3125,-0.06201172,0.04638672,0.9555664,0.03027344,0.190918,-0.6850586
848,0.375,-0.3125,-0.375,-0.06201172,0.03076172,0.9672852,0.03027344,0.190918,-0.6850586
849,0.5625,-0.125,-0.8125,-0.06201172,0.03466797,0.9672852,0.03027344,0.190918,-0.6850586
850,0.4375,0.375,-0.625,-0.04638672,0.05029297,0.9633789,0.03027344,0.190918,-0.6850586
851,0.6875,-0.5,-0.375,-0.03466797,0.03857422,0.9555664,0.03027344,0.190918,-0.6850586
852,0.0625,-0.125,-0.125,-0.04638672,0.05029297,0.9672852,0.03027344,0.190918,-0.6850586
853,0.3125,-0.125,-0.25,-0.06982422,0.05029297,0.9829102,0.01953125,0.1875,-0.6850586
854,0.625,-0.4375,-0.125,-0.05029297,0.03466797,0.9711914,0.01953125,0.1875,-0.6850586
855,0.625,0,-0.0625,-0.05810547,0.04248047,0.9750977,0.01953125,0.1875,-0.6850586
856,0.3125,-0.1875,-0.75,-0.05029297,0.03466797,0.9594727,0.02783203,0.1918945,-0.6904297
857,0.5,0,-0.875,-0.04248047,0.01513672,0.9829102,0.02783203,0.1918945,-0.6904297
858,0.0625,-0.1875,-0.375,-0.05810547,0.02685547,0.9907227,0.02783203,0.1918945,-0.6904297
859,0.4375,0,-0.25,-0.04638672,0.01513672,0.9829102,0.02783203,0.1884766,-0.6889648
860,-0.0625,-0.3125,-0.5625,-0.05810547,0.01513672,0.9750977,0.02783203,0.1884766,-0.6889648
861,0.4375,0,-0.125,-0.05419922,0.04248047,0.9711914,0.02783203,0.1884766,-0.6889648
862,-0.125,-0.5,-0.125,-0.05029297,0.02294922,0.9907227,0.02783203,0.1884766,-0.6889648
863,-0.3125,-0.625,-0.1875,-0.05810547,0.03076172,0.9829102,0.02197266,0.1933594,-0.6889648
864,0.375,0,-0.875,-0.05810547,0.03857422,0.9750977,0.02197266,0.1933594,-0.6889648
865,0.625,-0.8125,0,-0.07763672,0.03857422,0.9672852,0.02197266,0.1933594,-0.6889648
866,0.0625,0.25,-0.25,-0.03857422,0.04248047,0.9594727,0.02685547,0.1953125,-0.6933594
867,0.8125,-0.6875,-0.4375,-0.05029297,0.01513672,0.9829102,0.02685547,0.1953125,-0.6933594
868,0.1875,-0.375,-0.5625,-0.03466797,0.02294922,0.9868164,0.02685547,0.1953125,-0.6933594
869,0.25,0.0625,-0.125,-0.06591797,0.03466797,0.9829102,0.02441406,0.1992188,-0.6865234
870,0.375,-0.25,-0.5625,-0.05419922,0.03076172,0.9672852,0.02441406,0.1992188,-0.6865234
871,0,-0.25,-0.5,-0.06591797,0.03076172,0.9985352,0.02441406,0.1992188,-0.6865234
872,0.4375,0.3125,-0.6875,-0.04638672,0.04248047,0.9711914,0.02441406,0.1992188,-0.6865234
873,0.5,-0.0625,-0.6875,-0.05810547,0.04248047,0.9985352,0.02099609,0.1943359,-0.6918945
874,0.4375,-0.375,-0.25,-0.05810547,0.05029297,0.9829102,0.02099609,0.1943359,-0.6918945
875,0.3125,-0.25,-0.3125,-0.05810547,0.03076172,0.9790039,0.02099609,0.1943359,-0.6918945
876,-0.5,-0.5,-0.875,-0.03857422,0.01513672,0.9477539,0.03125,0.1943359,-0.6904297
877,-0.0625,0,-0.8125,-0.05029297,0.05419922,0.9555664,0.03125,0.1943359,-0.6904297
878,0.5,-0.25,-0.375,-0.05810547,0.03466797,0.9711914,0.03125,0.1943359,-0.6904297
879,0,-0.1875,-0.5,-0.05810547,0.03076172,0.9555664,0.02783203,0.1943359,-0.6821289
880,0.5625,-0.375,-0.25,-0.06591797,0.01513672,0.9633789,0.02783203,0.1943359,-0.6821289
881,0.3125,0.125,-0.625,-0.05419922,0.05029297,0.9633789,0.02783203,0.1943359,-0.6821289
882,0.5,-0.0625,-0.3125,-0.05419922,0.04248047,0.9829102,0.02783203,0.1943359,-0.6821289
883,0.6875,0,-0.3125,-0.04638672,0.02685547,0.9672852,0.02539063,0.1967773,-0.6806641
884,0.375,-0.0625,-0.9375,-0.06201172,0.04638672,0.9711914,0.02539063,0.1967773,-0.6806641
885,0.1875,-0.4375,-0.625,-0.06591797,0.02685547,0.9750977,0.02539063,0.1967773,-0.6806641
886,0.125,0.125,-0.75,-0.04638672,0.03466797,0.9555664,0.03613281,0.190918,-0.6850586
887,0.8125,0.1875,-1,-0.07373047,0.01513672,0.9672852,0.03613281,0.190918,-0.6850586
888,0,-0.125,-0.625,-0.06201172,0.03857422,0.9633789,0.03613281,0.190918,-0.6850586
889,0.25,0.125,-0.4375,-0.04638672,0.03076172,0.9711914,0.02783203,0.1918945,-0.6821289
890,0.375,0.3125,-0.5625,-0.03857422,0.01513672,0.9750977,0.02783203,0.1918945,-0.6821289
891,0.4375,0.5625,-0.25,-0.09716797,0.01513672,1.001953,0.02783203,0.1918945,-0.6821289
892,0.4375,-0.125,-0.625,-0.05029297,0.05419922,0.9829102,0.02783203,0.1918945,-0.6821289
893,0.375,0.0625,-0.3125,-0.06201172,0.03076172,0.9790039,0.02783203,0.1918945,-0.6821289
894,0.1875,-0.3125,-0.25,-0.06591797,0.03466797,0.9829102,0.02783203,0.1918945,-0.6821289
895,0.8125,-0.3125,0,-0.06982422,0.03076172,0.9750977,0.02783203,0.1918945,-0.6821289
896,0,-0.375,0,-0.05810547,0.05029297,0.9868164,0.03466797,0.1894531,-0.6962891
897,0.4375,0,-0.625,-0.03857422,0.03466797,0.9750977,0.03466797,0.1894531,-0.6962891
898,-0.0625,-0.125,-0.75,-0.07373047,0.04248047,0.9672852,0.03466797,0.1894531,-0.6962891
899,0.3125,-0.25,-0.1875,-0.04248047,0.03857422,0.9868164,0.03027344,0.190918,-0.6875
900,0.6875,0,-0.1875,-0.05419922,0.03076172,0.9633789,0.03027344,0.190918,-0.6875
901,0.4375,0.125,-0.1875,-0.05810547,0.03076172,0.9633789,0.03027344,0.190918,-0.6875
902,0.3125,-0.375,-0.8125,-0.04638672,0.05029297,0.9750977,0.02783203,0.1875,-0.6821289
903,0.25,-0.1875,-0.125,-0.06982422,0.04248047,0.9672852,0.02783203,0.1875,-0.6821289
904,0.0625,-0.4375,-0.6875,-0.07373047,0.04248047,0.9711914,0.02783203,0.1875,-0.6821289
905,-0.0625,-0.625,-0.5,-0.05810547,0.01123047,0.9672852,0.02783203,0.1875,-0.6821289
906,-0.25,-0.3125,-0.375,-0.06201172,0.03857422,0.9907227,0.02880859,0.1933594,-0.6850586
907,0,-0.5,-0.5625,-0.05419922,0.03076172,0.9672852,0.02880859,0.1933594,-0.6850586
908,0.25,-0.6875,-0.125,-0.06201172,0.04638672,0.9672852,0.02880859,0.1933594,-0.6850586
909,0.125,-0.25,-0.4375,-0.06201172,0.05029297,0.9790039,0.02783203,0.1953125,-0.6767578
910,0,-0.3125,-0.375,-0.05810547,0.03857422,0.9711914,0.02783203,0.1953125,-0.6767578
911,0.6875,-0.5,-0.8125,-0.06591797,0.03466797,0.9672852,0.02783203,0.1953125,-0.6767578
912,0.5,-0.0625,0.0625,-0.05810547,0.03076172,0.9829102,0.02783203,0.1933594,-0.6821289
913,0.375,0.1875,-0.375,-0.05029297,0.03076172,0.9711914,0.02783203,0.1933594,-0.6821289
914,0.25,-0.0625,-0.5,-0.06591797,0.04638672,0.9829102,0.02783203,0.1933594,-0.6821289
915,0.375,-0.375,-0.5625,-0.06201172,0.02294922,0.9750977,0.02783203,0.1933594,-0.6821289
916,0,-0.8125,-0.5,-0.05419922,0.03857422,0.9790039,0.02539063,0.1860352,-0.6791992
917,0.375,-0.25,-0.4375,-0.05029297,0.03076172,0.9633789,0.02539063,0.1860352,-0.6791992
918,-0.0625,-0.0625,-0.1875,-0.05419922,0.02685547,0.9868164,0.02539063,0.1860352,-0.6791992
919,0.125,-0.375,-0.0625,-0.05810547,0.03466797,0.9868164,0.0234375,0.1884766,-0.6904297
920,-0.125,-0.375,-0.6875,-0.05419922,0.05419922,0.9633789,0.0234375,0.1884766,-0.6904297
921,0.4375,0,-0.8125,-0.05810547,0.02294922,0.9829102,0.0234375,0.1884766,-0.6904297
922,-0.25,-0.3125,-0.8125,-0.05029297,0.04248047,0.9907227,0.03027344,0.1977539,-0.6875
923,0.125,-0.0625,-1.0625,-0.07763672,0.04638672,0.9829102,0.03027344,0.1977539,-0.6875
924,0.1875,0,-0.125,-0.06201172,0.03076172,0.9829102,0.03027344,0.1977539,-0.6875
925,0.1875,-0.3125,-0.75,-0.05810547,0.05810547,0.9790039,0.03027344,0.1977539,-0.6875
926,0.0625,-0.5625,-0.5,-0.06201172,0.04248047,0.9829102,0.02685547,0.1967773,-0.6865234
927,0.0625,-0.0625,-0.3125,-0.04638672,0.03857422,0.9516602,0.02685547,0.1967773,-0.6865234
928,0.0625,0.125,-0.0625,-0.03466797,0.03857422,0.9633789,0.02685547,0.1967773,-0.6865234
929,0.375,-0.3125,-0.5,-0.04248047,0.03857422,0.9750977,0.02441406,0.1992188,-0.6821289
930,0.75,-0.375,-0.3125,-0.05419922,0.03466797,0.9946289,0.02441406,0.1992188,-0.6821289
931,0.375,0.1875,-0.6875,-0.06201172,0.03076172,0.9829102,0.02441406,0.1992188,-0.6821289
932,0.125,0.5625,-0.25,-0.05029297,0.04248047,0.9672852,0.02783203,0.1992188,-0.6865234
933,1,-0.25,-0.5625,-0.06201172,0.04638672,0.9594727,0.02783203,0.1992188,-0.6865234
934,0.8125,-0.1875,-0.5625,-0.04638672,0.04248047,0.9594727,0.02783203,0.1992188,-0.6865234
935,0.6875,0.3125,-0.375,-0.05029297,0.04248047,0.9868164,0.02783203,0.1992188,-0.6865234
936,0.0625,-0.3125,-0.625,-0.06201172,0.03857422,0.9750977,0.02783203,0.1992188,-0.6865234
937,0.1875,-0.125,-0.5625,-0.06201172,0.03466797,0.9555664,0.02783203,0.1992188,-0.6865234
938,0.9375,0,-0.125,-0.06591797,0.04248047,0.9594727,0.02783203,0.1992188,-0.6865234
939,0.3125,-0.375,-0.75,-0.03857422,0.03076172,0.9750977,0.0234375,0.1953125,-0.6850586
940,-0.125,-0.5625,-0.5,-0.07763672,0.04248047,0.9829102,0.0234375,0.1953125,-0.6850586
941,0.4375,0.25,-0.5,-0.05029297,0.03076172,0.9829102,0.0234375,0.1953125,-0.6850586
942,-0.1875,0,-0.75,-0.05029297,0.03466797,0.9750977,0.03125,0.1977539,-0.6948242
943,0.3125,0.125,-0.25,-0.06201172,0.05029297,0.9672852,0.03125,0.1977539,-0.6948242
944,0.625,-0.0625,-0.5,-0.06591797,0.03857422,0.9711914,0.03125,0.1977539,-0.6948242
945,0.0625,-0.3125,-0.375,-0.06982422,0.02685547,0.9672852,0.02197266,0.1977539,-0.6850586
946,0.3125,0,-0.1875,-0.04248047,0.05029297,0.9829102,0.02197266,0.1977539,-0.6850586
947,0.125,-0.0625,-0.375,-0.05029297,0.03466797,0.9829102,0.02197266,0.1977539,-0.6850586
948,0.1875,-0.75,-0.625,-0.05810547,0.04638672,0.9868164,0.02197266,0.1977539,-0.6850586
949,0.25,0,-0.5,-0.06201172,0.04248047,0.9868164,0.02197266,0.1875,-0.6791992
950,-0.0625,-0.5,-0.5625,-0.05810547,0.03076172,0.9633789,0.02197266,0.1875,-0.6791992
951,0.5625,-0.5625,-0.625,-0.06201172,0.05810547,0.9672852,0.02197266,0.1875,-0.6791992
952,0.25,0.0625,-0.25,-0.07373047,0.03466797,0.9633789,0.02539063,0.1943359,-0.6865234
953,0.3125,0.3125,-0.375,-0.05419922,0.03076172,0.9633789,0.02539063,0.1943359,-0.6865234
954,0.4375,-0.375,-0.6875,-0.05810547,0.03466797,0.9711914,0.02539063,0.1943359,-0.6865234
955,0.125,-0.375,-0.4375,-0.05029297,0.01904297,0.9868164,0.02441406,0.1850586,-0.6918945
956,0,0.0625,-0.8125,-0.06201172,0.05029297,0.9907227,0.02441406,0.1850586,-0.6918945
957,0.625,0,-0.125,-0.06982422,0.01513672,0.9633789,0.02441406,0.1850586,-0.6918945
958,0.5625,-0.5,-0.5,-0.05029297,0.04248047,0.9672852,0.02441406,0.1850586,-0.6918945
959,0.125,-0.6875,-0.75,-0.04248047,0.02294922,0.9829102,0.01855469,0.1894531,-0.6875
960,-0.0625,-0.625,-0.875,-0.06591797,0.01513672,0.9555664,0.01855469,0.1894531,-0.6875
961,0.6875,0,-1,-0.06982422,0.01513672,0.9594727,0.01855469,0.1894531,-0.6875
962,0.25,-0.1875,-1.125,-0.04638672,0.01513672,0.9633789,0.03027344,0.1992188,-0.6835938
963,0.3125,0.25,-0.25,-0.05029297,0.04248047,0.9672852,0.03027344,0.1992188,-0.6835938
964,0.25,-0.3125,-0.625,-0.05029297,0.03076172,0.9907227,0.03027344,0.1992188,-0.6835938
965,0.3125,-0.375,-0.25,-0.05810547,0.03076172,0.9711914,0.03027344,0.184082,-0.6918945
966,0.25,-0.5625,-0.1875,-0.05810547,0.01123047,0.9829102,0.03027344,0.184082,-0.6918945
967,0.125,0,-0.875,-0.05029297,0.05810547,0.9829102,0.03027344,0.184082,-0.6918945
968,0.3125,-0.5,-0.375,-0.05419922,0.04248047,0.9790039,0.03027344,0.184082,-0.6918945
969,-0.0625,-0.125,-0.5625,-0.05810547,0.04248047,0.9907227,0.02197266,0.1977539,-0.6933594
970,0.625,0.125,-0.3125,-0.06591797,0.03857422,0.9829102,0.02197266,0.1977539,-0.6933594
971,0.25,0.0625,-0.25,-0.05810547,0.03076172,0.9711914,0.02197266,0.1977539,-0.6933594
972,0.4375,0,-0.1875,-0.06591797,0.02685547,0.9829102,0.02441406,0.1884766,-0.6933594
973,0.125,0.125,-0.5625,-0.05029297,0.05419922,0.9672852,0.02441406,0.1884766,-0.6933594
974,0.25,-0.3125,-0.625,-0.05810547,0.03076172,0.9907227,0.02441406,0.1884766,-0.6933594
975,0.8125,-0.375,-0.375,-0.06591797,0.03857422,0.9829102,0.03027344,0.190918,-0.6875
976,0.5625,-0.1875,-0.5625,-0.05029297,0.01513672,0.9711914,0.03027344,0.190918,-0.6875
977,0.6875,0,-0.1875,-0.06201172,0.01513672,0.9672852,0.03027344,0.190918,-0.6875
978,0.5625,-0.25,-0.6875,-0.05810547,0.03076172,0.9516602,0.03027344,0.190918,-0.6875
979,0.3125,-0.4375,-0.625,-0.05029297,0.007324219,0.9790039,0.03027344,0.190918,-0.6875
980,0.0625,-0.125,-0.625,-0.05419922,0.05419922,0.9829102,0.03027344,0.190918,-0.6875
981,0.25,0,-0.375,-0.06591797,0.05029297,0.9555664,0.03027344,0.190918,-0.6875
982,0.125,0.0625,-0.75,-0.04638672,0.03466797,0.9868164,0.02783203,0.1894531,-0.6821289
983,0.3125,0.0625,-0.4375,-0.05810547,0.03857422,0.9633789,0.02783203,0.1894531,-0.6821289
984,0.1875,0.0625,-0.25,-0.05810547,0.04248047,0.9711914,0.02783203,0.1894531,-0.6821289
985,0,-0.5,-0.8125,-0.05810547,0.03076172,0.9672852,0.02099609,0.1918945,-0.6904297
986,0.3125,-0.1875,-0.4375,-0.06591797,0.03076172,0.9711914,0.02099609,0.1918945,-0.6904297
987,-0.0625,-0.6875,-0.5,-0.06982422,0.05419922,0.9633789,0.02099609,0.1918945,-0.6904297
988,0.5,-0.375,-0.125,-0.04248047,0.04248047,0.9750977,0.02099609,0.1918945,-0.6904297
989,0.25,-0.25,-0.375,-0.04248047,0.04638672,0.9672852,0.02099609,0.1918945,-0.6904297
990,0.375,-0.75,-0.625,-0.06201172,0.03076172,0.9829102,0.02099609,0.1918945,-0.6904297
991,0.625,-0.125,-0.1875,-0.05810547,0.06591797,0.9633789,0.02099609,0.1918945,-0.6904297
992,0.125,-0.6875,-0.0625,-0.05810547,0.04638672,0.9750977,0.02685547,0.1967773,-0.6904297
993,0.5,-0.1875,-0.1875,-0.05810547,0.03076172,0.9829102,0.02685547,0.1967773,-0.6904297
994,0.0625,-0.3125,-0.0625,-0.06201172,0.03857422,0.9711914,0.02685547,0.1967773,-0.6904297
995,0.375,-0.375,-0.1875,-0.05419922,0.03076172,0.9790039,0.03271484,0.1875,-0.6835938
996,0.4375,-0.6875,-0.625,-0.04638672,0.007324219,0.9594727,0.03271484,0.1875,-0.6835938
997,0.625,0,-0.5,-0.04638672,0.04248047,0.9829102,0.03271484,0.1875,-0.6835938
998,0.0625,-0.3125,-0.125,-0.06591797,0.03466797,0.9829102,0.02783203,0.1933594,-0.6933594
999,0.25,0.625,-0.4375,-0.05029297,0.04638672,0.9829102,0.02783203,0.1933594,-0.6933594
1000,0.4375,0.125,-0.5625,-0.05029297,0.04248047,0.9750977,0.02783203,0.1933594,-0.6933594
1001,0,-0.3125,-0.4375,-0.05810547,0.01513672,0.9829102,0.02783203,0.1933594,-0.6933594
1002,0.3125,-0.1875,-0.8125,-0.05810547,0.02685547,0.9829102,0.02783203,0.1943359,-0.6835938
1003,0.0625,0,-0.5,-0.07373047,0.01513672,0.9555664,0.02783203,0.1943359,-0.6835938
1004,0.8125,-0.125,-0.5,-0.05029297,0.03466797,0.9711914,0.02783203,0.1943359,-0.6835938
1005,0,0.0625,-0.25,-0.06201172,0.03466797,0.9555664,0.02539063,0.1953125,-0.6875
1006,0.0625,-0.4375,-0.75,-0.05810547,0.04248047,0.9829102,0.02539063,0.1953125,-0.6875
1007,0.3125,0.1875,-0.625,-0.05419922,0.03076172,0.9829102,0.02539063,0.1953125,-0.6875
1008,0.3125,0,-0.5625,-0.03857422,0.01904297,0.9477539,0.03027344,0.1816406,-0.6806641
1009,0.5625,-0.375,-0.75,-0.05810547,0.04248047,0.9711914,0.03027344,0.1816406,-0.6806641
1010,0.25,0.125,-1.125,-0.05810547,0.04248047,0.9633789,0.03027344,0.1816406,-0.6806641
1011,0.375,0,-0.5,-0.04638672,0.03466797,0.9672852,0.03027344,0.1816406,-0.6806641
1012,-0.1875,-0.25,-0.375,-0.05419922,0.03857422,0.9477539,0.03125,0.1977539,-0.6918945
1013,0.1875,0.25,-0.375,-0.05029297,0.03466797,0.9516602,0.03125,0.1977539,-0.6918945
1014,1.125,0.0625,-0.375,-0.05810547,0.03466797,1.005859,0.03125,0.1977539,-0.6918945
1015,0.4375,0,-0.5625,-0.06201172,0.03857422,0.9829102,0.02783203,0.1894531,-0.6777344
1016,0.6875,0.125,-0.9375,-0.06591797,0.01513672,0.9907227,0.02783203,0.1894531,-0.6777344
1017,0.3125,-0.125,-1,-0.05810547,0.03076172,0.9516602,0.02783203,0.1894531,-0.6777344
1018,0.5625,0.5,-0.3125,-0.06201172,0.04248047,0.9672852,0.02197266,0.1875,-0.6875
1019,0.5625,0.0625,-0.6875,-0.05419922,0.03857422,0.9829102,0.02197266,0.1875,-0.6875
1020,0.625,-0.25,-0.5,-0.05810547,0.02685547,0.9829102,0.02197266,0.1875,-0.6875
1021,0.125,0,-0.625,-0.06591797,0.02685547,0.9477539,0.02197266,0.1875,-0.6875
1022,0.375,0.1875,-0.8125,-0.06201172,0.04248047,0.9672852,0.02197266,0.1875,-0.6875
1023,0.4375,-0.4375,-0.375,-0.06591797,0.05810547,0.9516602,0.02197266,0.1875,-0.6875
1024,-0.1875,-0.375,-0.875,-0.06591797,0.05029297,0.9633789,0.02197266,0.1875,-0.6875
1025,0.4375,-0.4375,-0.8125,-0.05029297,0.04248047,0.9711914,0.02685547,0.2036133,-0.6865234
1026,0,-0.0625,-0.375,-0.06201172,0.03466797,0.9829102,0.02685547,0.2036133,-0.6865234
1027,0,0,-0.9375,-0.05029297,0.03857422,0.9633789,0.02685547,0.2036133,-0.6865234
1028,0.75,0,-0.4375,-0.04638672,0.02685547,0.9790039,0.02880859,0.190918,-0.6889648
1029,0.4375,0,-0.3125,-0.05419922,0.02685547,0.9594727,0.02880859,0.190918,-0.6889648
1030,0.6875,-0.375,-0.625,-0.06201172,0.03466797,0.9594727,0.02880859,0.190918,-0.6889648
1031,0.1875,0.4375,-0.375,-0.05810547,0.05029297,0.9711914,0.02880859,0.190918,-0.6889648
1032,0.625,0.1875,-0.625,-0.05419922,0.03466797,0.9672852,0.02880859,0.190918,-0.6889648
1033,0.6875,0.125,-1.125,-0.05419922,0.03466797,0.9594727,0.02880859,0.190918,-0.6889648
1034,0.25,-0.0625,-0.25,-0.05029297,0.03076172,0.9907227,0.02880859,0.190918,-0.6889648
1035,0.125,0,-0.8125,-0.05810547,0.05029297,0.9594727,0.02441406,0.1933594,-0.6835938
1036,0.3125,0,-0.875,-0.05419922,0.02294922,0.9829102,0.02441406,0.1933594,-0.6835938
1037,0.0625,0,-0.375,-0.05029297,0.03857422,0.9633789,0.02441406,0.1933594,-0.6835938
1038,0.75,0.25,-0.25,-0.05810547,0.04638672,0.9672852,0.03125,0.1918945,-0.6889648
1039,0.25,-0.1875,0,-0.06982422,0.04248047,0.9711914,0.03125,0.1918945,-0.6889648
1040,0.4375,-0.3125,-0.5625,-0.06982422,0.02294922,0.9711914,0.03125,0.1918945,-0.6889648
1041,0.625,-0.0625,-0.25,-0.06591797,0.03857422,0.9516602,0.02685547,0.1894531,-0.6865234
1042,0.4375,0.125,-0.375,-0.06201172,0.03857422,0.9672852,0.02685547,0.1894531,-0.6865234
1043,0.375,0.125,-0.5,-0.06982422,0.03466797,0.9868164,0.02685547,0.1894531,-0.6865234
1044,0,0.1875,-0.8125,-0.06982422,0.03076172,0.9829102,0.02685547,0.1894531,-0.6865234
1045,0.25,0,-0.625,-0.05029297,0.04638672,0.9672852,0.02685547,0.1953125,-0.6777344
1046,0.8125,0.375,-0.5625,-0.06591797,0.03076172,0.9868164,0.02685547,0.1953125,-0.6777344
1047,1,0,-1,-0.06201172,0.04638672,0.9633789,0.02685547,0.1953125,-0.6777344
1048,0.5,0.125,-0.8125,-0.05810547,0.03466797,0.9868164,0.03027344,0.1894531,-0.675293
1049,0.3125,0.3125,-0.6875,-0.05810547,0.03466797,0.9711914,0.03027344,0.1894531,-0.675293
1050,0.75,0.625,-0.9375,-0.06591797,0.03076172,0.9829102,0.03027344,0.1894531,-0.675293
1051,0.5625,0.3125,-0.625,-0.06982422,0.03466797,0.9750977,0.02539063,0.1967773,-0.6791992
1052,0.3125,0.4375,-0.125,-0.05810547,0.04638672,0.9633789,0.02539063,0.1967773,-0.6791992
1053,0.5,-0.0625,-0.5625,-0.06591797,0.03076172,0.9829102,0.02539063,0.1967773,-0.6791992
1054,0.875,0.4375,-1.125,-0.06591797,0.02294922,0.9868164,0.02539063,0.1967773,-0.6791992
1055,0.75,0.6875,-0.6875,-0.05810547,0.04638672,0.9946289,0.02197266,0.1953125,-0.6889648
1056,-0.0625,0.625,-0.8125,-0.05029297,0.01123047,0.9790039,0.02197266,0.1953125,-0.6889648
1057,0.1875,0.125,-0.375,-0.05810547,0.02685547,1.009766,0.02197266,0.1953125,-0.6889648
1058,1.0625,0.1875,-0.5625,-0.05810547,0.03857422,0.9672852,0.02880859,0.1933594,-0.6850586
1059,0.1875,0.1875,-0.5625,-0.05419922,0.03466797,0.9829102,0.02880859,0.1933594,-0.6850586
1060,0.4375,0.25,-1.0625,-0.05419922,0.01513672,0.9555664,0.02880859,0.1933594,-0.6850586
1061,0.1875,0.1875,-0.125,-0.05029297,0.03857422,0.9868164,0.02685547,0.1884766,-0.6904297
1062,0.5,0.625,-0.5625,-0.03857422,0.01513672,0.9711914,0.02685547,0.1884766,-0.6904297
1063,0.4375,0.25,-0.625,-0.06201172,0.04248047,0.9633789,0.02685547,0.1884766,-0.6904297
1064,0.5,-0.25,0,-0.06591797,0.03076172,0.9829102,0.02685547,0.1884766,-0.6904297
1065,0.25,0.125,-0.6875,-0.04248047,0.02294922,0.9711914,0.03271484,0.190918,-0.6821289
1066,0.6875,0.0625,-1,-0.05810547,0.05029297,0.9516602,0.03271484,0.190918,-0.6821289
1067,0.5,0,-0.5,-0.05419922,0.03076172,0.9594727,0.03271484,0.190918,-0.6821289
1068,0.125,0.375,-0.25,-0.05419922,0.01513672,0.9711914,0.02539063,0.1967773,-0.6918945
1069,0.0625,-0.5,-0.4375,-0.03466797,0.03466797,0.9829102,0.02539063,0.1967773,-0.6918945
1070,0.375,0.25,-0.375,-0.05029297,0.03076172,0.9555664,0.02539063,0.1967773,-0.6918945
1071,0.875,-0.3125,-0.5625,-0.05810547,0.04638672,0.9633789,0.0234375,0.2011719,-0.6806641
1072,0.5625,0,-0.375,-0.06201172,0.01513672,0.9907227,0.0234375,0.2011719,-0.6806641
1073,-0.125,0,-0.3125,-0.06201172,0.03466797,0.9750977,0.0234375,0.2011719,-0.6806641
1074,0.4375,0.125,-0.9375,-0.04638672,0.01513672,0.9829102,0.0234375,0.2011719,-0.6806641
1075,0.5625,-0.5,-0.3125,-0.04248047,0.03857422,0.9672852,0.0234375,0.2011719,-0.6806641
1076,0.8125,0,-0.5,-0.06201172,0.03466797,0.9633789,0.0234375,0.2011719,-0.6806641
1077,0,0,-0.5625,-0.05810547,0.04638672,0.9750977,0.0234375,0.2011719,-0.6806641
1078,-0.25,0.25,-0.6875,-0.04638672,0.01513672,0.9829102,0.02539063,0.1943359,-0.6865234
1079,0.0625,0.25,-0.5,-0.07373047,0.03857422,0.9633789,0.02539063,0.1943359,-0.6865234
1080,0.1875,0.0625,-0.375,-0.05419922,0.03466797,0.9946289,0.02539063,0.1943359,-0.6865234
1081,0.3125,-0.1875,-0.25,-0.07373047,0.04248047,0.9829102,0.02197266,0.1918945,-0.6865234
1082,0.8125,-0.0625,-1,-0.06591797,0.05810547,0.9672852,0.02197266,0.1918945,-0.6865234
1083,0.5,-0.25,-0.5625,-0.06982422,0.01513672,0.9711914,0.02197266,0.1918945,-0.6865234
1084,0.0625,0.125,-0.625,-0.06201172,0.01513672,0.9868164,0.02099609,0.1850586,-0.6933594
1085,0.9375,-0.1875,-0.25,-0.05419922,0.03076172,0.9790039,0.02099609,0.1850586,-0.6933594
1086,0.25,0.125,-0.5,-0.05029297,0.01513672,0.9477539,0.02099609,0.1850586,-0.6933594
1087,0.5625,-0.3125,-0.5625,-0.04638672,0.03466797,0.9829102,0.02099609,0.1850586,-0.6933594
1088,0.4375,0.1875,-0.25,-0.05810547,0.03466797,0.9829102,0.03027344,0.1918945,-0.6904297
1089,0.5,-0.125,-0.5,-0.04248047,0.01513672,0.9750977,0.03027344,0.1918945,-0.6904297
1090,0.125,-0.0625,-0.6875,-0.06201172,0.02685547,0.9750977,0.03027344,0.1918945,-0.6904297
1091,0.3125,-0.625,-0.625,-0.05419922,0.03466797,0.9633789,0.02880859,0.1894531,-0.6865234
1092,0.1875,0,-0.6875,-0.04248047,0.03076172,0.9829102,0.02880859,0.1894531,-0.6865234
1093,0,0.125,-0.625,-0.04638672,0.05029297,0.9829102,0.02880859,0.1894531,-0.6865234
1094,0.1875,-0.25,-0.5,-0.05029297,0.04638672,0.9829102,0.02880859,0.1953125,-0.6933594
1095,0.375,0.5625,-0.5625,-0.05029297,0.04248047,0.9829102,0.02880859,0.1953125,-0.6933594
1096,0.3125,0.5625,-0.75,-0.05419922,0.03076172,0.9829102,0.02880859,0.1953125,-0.6933594
1097,0.3125,0.0625,-0.6875,-0.06591797,0.03466797,0.9829102,0.02880859,0.1953125,-0.6933594
1098,0.375,-0.0625,-0.3125,-0.07373047,0.03076172,0.9829102,0.02880859,0.190918,-0.6918945
1099,0.3125,0,-0.4375,-0.06591797,0.02685547,0.9907227,0.02880859,0.190918,-0.6918945
1100,0.3125,-0.125,-0.5625,-0.06982422,0.03076172,0.9829102,0.02880859,0.190918,-0.6918945
1101,0.6875,0.375,-0.5,-0.07373047,0.03076172,0.9829102,0.03027344,0.1967773,-0.6806641
1102,0.6875,-0.125,-0.75,-0.06591797,0.01123047,0.9868164,0.03027344,0.1967773,-0.6806641
1103,0.5,0.0625,-0.5,-0.05419922,0.05419922,0.9672852,0.03027344,0.1967773,-0.6806641
1104,1,-0.0625,-0.75,-0.06591797,0.03857422,0.9829102,0.02783203,0.1933594,-0.6865234
1105,0.4375,-0.1875,-0.625,-0.06201172,0.01513672,0.9555664,0.02783203,0.1933594,-0.6865234
1106,0.375,0,-0.6875,-0.05419922,0.03857422,0.9907227,0.02783203,0.1933594,-0.6865234
1107,0.625,0,-0.4375,-0.05419922,0.02685547,0.9555664,0.02783203,0.1933594,-0.6865234
1108,0,0.1875,-0.5,-0.05810547,0.03857422,0.9868164,0.02783203,0.1933594,-0.6865234
1109,0.25,0.25,-0.3125,-0.05419922,0.01513672,0.9829102,0.02783203,0.1933594,-0.6865234
1110,0.625,-0.0625,-0.5,-0.07373047,0.02685547,0.9711914,0.02783203,0.1933594,-0.6865234
1111,0.25,0,-0.625,-0.04638672,0.04248047,0.9555664,0.02197266,0.1967773,-0.6821289
1112,0.1875,-0.1875,-0.4375,-0.06591797,0.04248047,0.9672852,0.02197266,0.1967773,-0.6821289
1113,0.25,-0.4375,-0.625,-0.06591797,0.02685547,0.9516602,0.02197266,0.1967773,-0.6821289
1114,0.25,-0.3125,-0.625,-0.06591797,0.03857422,0.9868164,0.02880859,0.1875,-0.6889648
1115,0.625,0.25,-0.1875,-0.05810547,0.03466797,0.9790039,0.02880859,0.1875,-0.6889648
1116,-0.0625,0,-0.625,-0.05810547,0.01513672,0.9711914,0.02880859,0.1875,-0.6889648
1117,0.0625,-0.125,-0.0625,-0.07763672,0.03857422,0.9594727,0.02880859,0.1875,-0.6889648
1118,0.3125,-0.5,-0.4375,-0.06591797,0.04638672,0.9829102,0.02880859,0.1875,-0.6889648
1119,0.3125,0,-0.3125,-0.04638672,0.03076172,0.9790039,0.02880859,0.1875,-0.6889648
1120,0.5625,-0.4375,-0.625,-0.05419922,0.03466797,0.9594727,0.02880859,0.1875,-0.6889648
1121,0.1875,0.0625,-0.25,-0.06591797,0.04638672,0.9633789,0.02441406,0.1884766,-0.6889648
1122,0.125,-0.625,-0.6875,-0.05419922,0.03857422,0.9711914,0.02441406,0.1884766,-0.6889648
1123,0.5625,0,-0.8125,-0.06591797,0.01513672,0.9750977,0.02441406,0.1884766,-0.6889648
1124,0.5,0.5625,-0.1875,-0.05029297,0.03076172,0.9750977,0.02197266,0.1850586,-0.6835938
1125,0.625,-0.25,-0.25,-0.06591797,0.02294922,0.9829102,0.02197266,0.1850586,-0.6835938
1126,0.5625,0.125,-0.0625,-0.07373047,0.03857422,0.9672852,0.02197266,0.1850586,-0.6835938
1127,0.1875,-0.0625,-0.75,-0.05419922,0.04638672,0.9555664,0.03271484,0.1933594,-0.6835938
1128,0.5625,0,-1.0625,-0.04638672,0.03857422,0.9829102,0.03271484,0.1933594,-0.6835938
1129,0.5,0,-0.5625,-0.05419922,0.04248047,0.9750977,0.03271484,0.1933594,-0.6835938
1130,0.25,-0.3125,-0.5625,-0.05810547,0.05029297,0.9829102,0.03271484,0.1933594,-0.6835938
1131,0.25,0.125,-0.25,-0.05810547,0.03076172,0.9555664,0.03271484,0.1933594,-0.6875
1132,0.75,-0.1875,-0.5,-0.06201172,0.01904297,0.9711914,0.03271484,0.1933594,-0.6875
1133,0.3125,0.125,-0.5,-0.05029297,0.04248047,0.9672852,0.03271484,0.1933594,-0.6875
1134,0.125,-0.25,-0.375,-0.06982422,0.04248047,0.9868164,0.01953125,0.1943359,-0.6933594
1135,0.25,-0.125,-0.625,-0.06201172,0.03076172,0.9829102,0.01953125,0.1943359,-0.6933594
1136,-0.125,0.625,-0.3125,-0.06201172,0.04638672,0.9907227,0.01953125,0.1943359,-0.6933594
1137,0.25,0.125,-0.375,-0.06591797,0.02685547,0.9829102,0.01953125,0.1933594,-0.6767578
1138,1.0625,-0.1875,-0.6875,-0.05419922,0.03076172,0.9907227,0.01953125,0.1933594,-0.6767578
1139,0.5,0.25,-0.5,-0.06591797,0.03466797,0.9555664,0.01953125,0.1933594,-0.6767578
1140,0.3125,-0.0625,-0.5,-0.06201172,0.01513672,0.9750977,0.01953125,0.1933594,-0.6767578
1141,0.25,0,-0.375,-0.07373047,0.04638672,0.9829102,0.03271484,0.1850586,-0.6875
1142,0,0,-0.5,-0.06591797,0.05419922,0.9829102,0.03271484,0.1850586,-0.6875
1143,0.75,0.1875,-0.4375,-0.05810547,0.02685547,0.9633789,0.03271484,0.1850586,-0.6875
1144,0.1875,-0.375,-0.625,-0.05029297,0.03857422,0.9594727,0.01953125,0.1933594,-0.6875
1145,0.875,0.375,-0.4375,-0.05419922,0.03857422,0.9829102,0.01953125,0.1933594,-0.6875
1146,0.25,0.1875,-0.4375,-0.06201172,0.03466797,0.9829102,0.01953125,0.1933594,-0.6875
1147,0.75,0,-0.6875,-0.05419922,0.01513672,0.9633789,0.0234375,0.1967773,-0.6865234
1148,0.125,-0.25,-0.6875,-0.05810547,0.03466797,0.9790039,0.0234375,0.1967773,-0.6865234
1149,0.4375,-0.3125,-0.25,-0.04638672,0.03466797,0.9829102,0.0234375,0.1967773,-0.6865234
1150,0.3125,-0.3125,-0.75,-0.05810547,0.05029297,0.9672852,0.0234375,0.1967773,-0.6865234
1151,0.625,0.1875,-0.8125,-0.07373047,0.04248047,0.9633789,0.02539063,0.1918945,-0.6918945
1152,0.4375,-0.4375,-0.1875,-0.06591797,0.02294922,0.9555664,0.02539063,0.1918945,-0.6918945
1153,0.5,0.375,-0.625,-0.06591797,0.01513672,0.9711914,0.02539063,0.1918945,-0.6918945
1154,0.25,-0.4375,-0.5,-0.05419922,0.03857422,0.9438477,0.02685547,0.190918,-0.6821289
1155,0.3125,0,-0.6875,-0.05029297,0.01123047,0.9672852,0.02685547,0.190918,-0.6821289
1156,0.25,0,-0.125,-0.05029297,0.03466797,0.9633789,0.02685547,0.190918,-0.6821289
1157,0.875,-0.375,-0.3125,-0.06591797,0.03076172,0.9829102,0.02880859,0.1918945,-0.6904297
1158,0.1875,-0.25,-0.125,-0.05810547,0.04638672,0.9477539,0.02880859,0.1918945,-0.6904297
1159,0.0625,-0.4375,-0.6875,-0.07373047,0.03857422,0.9555664,0.02880859,0.1918945,-0.6904297
1160,0.0625,0,-0.125,-0.05419922,0.05419922,0.9672852,0.02880859,0.1918945,-0.6904297
1161,-0.0625,-0.9375,-0.5625,-0.04638672,0.04638672,0.9829102,0.02880859,0.1918945,-0.6904297
1162,0.25,0.3125,-0.4375,-0.05810547,0.04248047,0.9868164,0.02880859,0.1918945,-0.6904297
1163,0,0.5625,-0.6875,-0.06201172,0.03466797,0.9790039,0.02880859,0.1918945,-0.6904297
1164,0.625,-0.375,-0.25,-0.05810547,0.03857422,0.9946289,0.02099609,0.1967773,-0.6865234
1165,-0.0625,-0.0625,-0.6875,-0.05419922,0.03857422,0.9829102,0.02099609,0.1967773,-0.6865234
1166,0,-0.5625,-0.75,-0.05029297,0.01513672,0.9633789,0.02099609,0.1967773,-0.6865234
1167,0.625,0.3125,-0.375,-0.05810547,0.03466797,0.9790039,0.02880859,0.190918,-0.6821289
1168,0.125,-0.375,-0.625,-0.06201172,0.05029297,0.9477539,0.02880859,0.190918,-0.6821289
1169,0.1875,-0.25,-0.5625,-0.06591797,0.01513672,0.9633789,0.02880859,0.190918,-0.6821289
1170,0,-0.4375,-0.1875,-0.05419922,0.02685547,0.9750977,0.02880859,0.190918,-0.6821289
1171,0.4375,-0.375,-0.4375,-0.06982422,0.02294922,0.9829102,0.02880859,0.190918,-0.6821289
1172,0.3125,0.125,-0.5625,-0.04638672,0.01513672,0.9946289,0.02880859,0.190918,-0.6821289
1173,0.375,0.25,-0.25,-0.06201172,0.03466797,0.9868164,0.02880859,0.190918,-0.6821289
1174,-0.0625,-0.25,-0.3125,-0.06591797,0.04248047,0.9633789,0.02197266,0.1933594,-0.6791992
1175,0.3125,0.125,-0.5625,-0.04248047,0.04248047,0.9711914,0.02197266,0.1933594,-0.6791992
1176,0.625,-0.0625,-0.5625,-0.06201172,0.01123047,0.9594727,0.02197266,0.1933594,-0.6791992
1177,0.375,-0.375,-0.375,-0.04248047,0.04638672,0.9672852,0.03125,0.184082,-0.6875
1178,0.3125,-0.125,-0.4375,-0.05419922,0.04638672,0.9633789,0.03125,0.184082,-0.6875
1179,0.25,-0.0625,-0.375,-0.07373047,0.03076172,0.9633789,0.03125,0.184082,-0.6875
1180,0,-0.0625,-0.8125,-0.05419922,0.05029297,0.9750977,0.03125,0.1943359,-0.6850586
1181,0.5,-0.4375,-0.1875,-0.06201172,0.02685547,0.9555664,0.03125,0.1943359,-0.6850586
1182,0.0625,-0.1875,-0.5,-0.05419922,0.05029297,0.9829102,0.03125,0.1943359,-0.6850586
1183,0.3125,0.0625,-0.1875,-0.06201172,0.03857422,0.9790039,0.03125,0.1943359,-0.6850586
1184,0.375,0,-1.0625,-0.08154297,0.02294922,0.9711914,0.02685547,0.1943359,-0.6821289
1185,0.25,-0.1875,-0.25,-0.05029297,0.04248047,0.9829102,0.02685547,0.1943359,-0.6821289
1186,0.125,-0.0625,-0.4375,-0.05029297,0.02294922,0.9868164,0.02685547,0.1943359,-0.6821289
1187,-0.125,-0.0625,-0.5,-0.06982422,0.03857422,0.9829102,0.02197266,0.1967773,-0.6889648
1188,0.5625,0,-0.5625,-0.06201172,0.03076172,0.9868164,0.02197266,0.1967773,-0.6889648
1189,0.25,0.125,-0.625,-0.06591797,0.04638672,0.9750977,0.02197266,0.1967773,-0.6889648
1190,0.5625,0.0625,-0.375,-0.05029297,0.04248047,0.9672852,0.02685547,0.1918945,-0.6918945
1191,0.375,0.125,-0.75,-0.07373047,0.04248047,0.9516602,0.02685547,0.1918945,-0.6918945
1192,0.3125,-0.1875,-0.4375,-0.05029297,0.02294922,0.9555664,0.02685547,0.1918945,-0.6918945
1193,0.3125,-0.375,-0.0625,-0.05810547,0.05029297,0.9985352,0.02685547,0.1918945,-0.6918945
1194,0.125,-0.125,-0.5,-0.05419922,0.04248047,0.9829102,0.02880859,0.1894531,-0.6933594
1195,0.5625,0,-0.25,-0.05029297,0.03076172,0.9790039,0.02880859,0.1894531,-0.6933594
1196,0.25,-0.5625,-0.6875,-0.04638672,0.05029297,0.9711914,0.02880859,0.1894531,-0.6933594
1197,0,0.0625,-0.6875,-0.05810547,0.03076172,0.9711914,0.02539063,0.1953125,-0.6850586
1198,0.4375,-0.25,-0.625,-0.06201172,0.03857422,0.9633789,0.02539063,0.1953125,-0.6850586
1199,0,-0.375,-0.5,-0.06591797,0.03857422,0.9829102,0.02539063,0.1953125,-0.6850586
1200,0.25,-0.1875,0.0625,-0.04248047,0.03857422,0.9633789,0.03271484,0.1894531,-0.6835938
1201,0.5,-0.1875,-0.8125,-0.06201172,0.05419922,0.9672852,0.03271484,0.1894531,-0.6835938
1202,0.6875,-0.1875,-0.6875,-0.04248047,0.03857422,0.9829102,0.03271484,0.1894531,-0.6835938
1203,0.0625,0.3125,-0.4375,-0.05810547,0.03466797,0.9829102,0.03271484,0.1894531,-0.6835938
1204,0.1875,-0.25,-0.6875,-0.05419922,0.05029297,0.9868164,0.03271484,0.1894531,-0.6835938
1205,0.375,0.0625,-0.4375,-0.05029297,0.03466797,0.9829102,0.03271484,0.1894531,-0.6835938
1206,0.1875,-0.4375,-0.25,-0.05419922,0.02685547,0.9750977,0.03271484,0.1894531,-0.6835938
1207,-0.125,-0.1875,-0.625,-0.05419922,0.02685547,0.9868164,0.01855469,0.1850586,-0.6791992
1208,0.625,-0.5,-0.5625,-0.06591797,0.03466797,0.9672852,0.01855469,0.1850586,-0.6791992
1209,0.125,-0.625,-0.625,-0.05419922,0.02685547,0.9829102,0.01855469,0.1850586,-0.6791992
1210,0.4375,0,-0.3125,-0.05419922,0.05029297,0.9829102,0.03027344,0.1967773,-0.6962891
1211,0.25,0,-0.25,-0.05029297,0.03466797,0.9633789,0.03027344,0.1967773,-0.6962891
1212,0.3125,-0.1875,-0.5,-0.05029297,0.04638672,0.9672852,0.03027344,0.1967773,-0.6962891
1213,-0.125,0.0625,-0.5,-0.04248047,0.04248047,0.9711914,0.03027344,0.1967773,-0.6962891
1214,0.5,0.0625,-0.6875,-0.05419922,0.03857422,0.9750977,0.03027344,0.1967773,-0.6962891
1215,0.625,-0.0625,-0.625,-0.06591797,0.05419922,0.9672852,0.03027344,0.1967773,-0.6962891
1216,0.5,-0.4375,0,-0.04638672,0.03857422,0.9477539,0.03027344,0.1967773,-0.6962891
1217,0,0,-0.1875,-0.06591797,0.05419922,0.9829102,0.03027344,0.190918,-0.6791992
1218,0.1875,-0.25,-0.625,-0.05419922,0.03076172,0.9750977,0.03027344,0.190918,-0.6791992
1219,0.5,-0.1875,-0.5,-0.05810547,0.03076172,0.9829102,0.03027344,0.190918,-0.6791992
1220,0.3125,-0.25,-0.4375,-0.03076172,0.03857422,0.9829102,0.02880859,0.1933594,-0.6889648
1221,0,0.1875,-0.4375,-0.05029297,0.05419922,0.9829102,0.02880859,0.1933594,-0.6889648
1222,0.5,-0.5625,-0.375,-0.05029297,0.05810547,0.9555664,0.02880859,0.1933594,-0.6889648
1223,0.5625,-0.8125,-0.75,-0.05029297,0.03857422,0.9672852,0.03027344,0.1953125,-0.6918945
1224,0.6875,0.0625,-0.625,-0.05419922,0.04248047,0.9790039,0.03027344,0.1953125,-0.6918945
1225,0.4375,0.375,-1,-0.03857422,0.01513672,0.9672852,0.03027344,0.1953125,-0.6918945
1226,0.5625,0.0625,-0.5,-0.06591797,0.03466797,0.9711914,0.03027344,0.1953125,-0.6918945
1227,0.5625,-0.25,-0.1875,-0.05419922,0.05419922,0.9829102,0.02685547,0.190918,-0.6904297
1228,0.125,-0.5,-0.75,-0.06591797,0.03857422,0.9711914,0.02685547,0.190918,-0.6904297
1229,0.0625,0,-0.3125,-0.07373047,0.02294922,0.9555664,0.02685547,0.190918,-0.6904297
1230,0.0625,-0.1875,-0.4375,-0.05810547,0.03857422,0.9829102,0.02685547,0.1943359,-0.6821289
1231,0.1875,-0.25,-0.8125,-0.06591797,0.03076172,0.9868164,0.02685547,0.1943359,-0.6821289
1232,0.4375,-0.3125,-0.625,-0.05810547,0.04248047,0.9829102,0.02685547,0.1943359,-0.6821289
1233,0.3125,-0.375,-0.5,-0.06201172,0.03466797,0.9672852,0.02880859,0.1977539,-0.6918945
1234,0,-0.3125,-0.3125,-0.04638672,0.03857422,0.9555664,0.02880859,0.1977539,-0.6918945
1235,0.875,0,-1.0625,-0.04638672,0.01513672,0.9672852,0.02880859,0.1977539,-0.6918945
1236,0.5625,0.1875,-1.0625,-0.05029297,0.05029297,0.9711914,0.02880859,0.1977539,-0.6918945
1237,0,0.1875,0.0625,-0.05810547,0.04248047,0.9868164,0.03027344,0.1875,-0.6850586
1238,0,-0.1875,-0.25,-0.05419922,0.04248047,0.9555664,0.03027344,0.1875,-0.6850586
1239,0.6875,-0.375,-0.25,-0.06201172,0.03857422,0.9829102,0.03027344,0.1875,-0.6850586
1240,0,0.125,-0.25,-0.07763672,0.01904297,0.9907227,0.02783203,0.190918,-0.6850586
1241,0,0,-0.125,-0.05810547,0.03466797,0.9868164,0.02783203,0.190918,-0.6850586
1242,0.3125,-0.125,-0.6875,-0.04638672,0.02294922,0.9790039,0.02783203,0.190918,-0.6850586
1243,0.3125,-0.5625,-0.625,-0.06982422,0.02685547,0.9829102,0.03027344,0.1967773,-0.6806641
1244,0.5,0.25,-0.125,-0.05419922,0.01513672,0.9790039,0.03027344,0.1967773,-0.6806641
1245,0.25,0.375,0,-0.05810547,0.04248047,0.9868164,0.03027344,0.1967773,-0.6806641
1246,0,-0.4375,-0.1875,-0.06591797,0.04638672,0.9633789,0.03027344,0.1967773,-0.6806641
1247,0.375,0.1875,-0.375,-0.06591797,0.03466797,0.9985352,0.03027344,0.1967773,-0.6806641
1248,0.6875,0,-0.25,-0.05810547,0.04248047,0.9829102,0.03027344,0.1967773,-0.6806641
1249,0.4375,-0.25,-0.375,-0.04248047,0.007324219,0.9633789,0.03027344,0.1967773,-0.6806641
1250,0,-0.25,-0.5,-0.04638672,0.05029297,0.9672852,0.02539063,0.1992188,-0.6889648
1251,1.1875,-0.375,-0.5625,-0.06982422,0.03857422,0.9711914,0.02539063,0.1992188,-0.6889648
1252,-0.0625,-0.6875,-0.6875,-0.06201172,0.03466797,0.9633789,0.02539063,0.1992188,-0.6889648
1253,0.0625,-0.4375,-0.8125,-0.06201172,0.03076172,0.9829102,0.03271484,0.1918945,-0.6918945
1254,0.9375,-0.125,-0.625,-0.01513672,0.04638672,0.9516602,0.03271484,0.1918945,-0.6918945
1255,0.25,-0.5625,-0.625,-0.06982422,0.05029297,0.9829102,0.03271484,0.1918945,-0.6918945
1256,0.8125,0.4375,-0.5,-0.04638672,0.04638672,0.9829102,0.03271484,0.1918945,-0.6918945
1257,0.5,-0.3125,-0.5625,-0.06201172,0.03857422,0.9829102,0.03271484,0.1918945,-0.6918945
1258,0.125,-0.125,-0.8125,-0.05810547,0.01513672,0.9829102,0.03271484,0.1918945,-0.6918945
1259,-0.25,-0.0625,-0.625,-0.06982422,0.03466797,0.9829102,0.03271484,0.1918945,-0.6918945
1260,0.125,0.125,-0.25,-0.05810547,0.03857422,0.9829102,0.03027344,0.1933594,-0.6850586
1261,1.125,-0.0625,-0.8125,-0.06201172,0.05029297,0.9750977,0.03027344,0.1933594,-0.6850586
1262,0.0625,0,-0.6875,-0.06201172,0.05029297,0.9750977,0.03027344,0.1933594,-0.6850586
1263,0.1875,0.625,-0.25,-0.06201172,0.03076172,0.9829102,0.02441406,0.1894531,-0.6806641
1264,0.5,-0.25,-0.5,-0.05810547,0.05029297,0.9672852,0.02441406,0.1894531,-0.6806641
1265,0.625,0.125,-1,-0.04248047,0.02294922,0.9711914,0.02441406,0.1894531,-0.6806641
1266,0.875,-0.1875,-0.1875,-0.04248047,0.04248047,0.9594727,0.02783203,0.2026367,-0.6889648
1267,0.5,-0.1875,-1,-0.05810547,0.04248047,0.9477539,0.02783203,0.2026367,-0.6889648
1268,0.4375,-0.0625,-0.25,-0.08154297,0.04248047,0.9672852,0.02783203,0.2026367,-0.6889648
1269,0.8125,0.3125,-0.375,-0.05419922,0.03466797,0.9672852,0.02783203,0.2026367,-0.6889648
1270,0.1875,0,-0.375,-0.05810547,0.03466797,0.9829102,0.02441406,0.1977539,-0.6933594
1271,0,-0.0625,-0.6875,-0.05419922,0.04248047,0.9829102,0.02441406,0.1977539,-0.6933594
1272,0.3125,0,-0.375,-0.06201172,0.05029297,0.9829102,0.02441406,0.1977539,-0.6933594
1273,-0.0625,0.125,-0.4375,-0.06591797,0.04248047,0.9633789,0.02441406,0.1967773,-0.6875
1274,0.3125,-0.1875,-0.75,-0.06201172,0.01513672,0.9594727,0.02441406,0.1967773,-0.6875
1275,0.375,0.125,0,-0.06591797,0.03466797,0.9711914,0.02441406,0.1967773,-0.6875
1276,0.125,0,-0.75,-0.05810547,0.03466797,0.9711914,0.02197266,0.1953125,-0.6850586
1277,0.25,-0.125,-0.5625,-0.06201172,0.03857422,0.9633789,0.02197266,0.1953125,-0.6850586
1278,0.3125,-0.5,-0.5625,-0.03466797,0.03076172,0.9790039,0.02197266,0.1953125,-0.6850586
1279,0.125,0.5,-0.75,-0.06591797,0.03466797,0.9555664,0.02197266,0.1953125,-0.6850586
1280,0.0625,-0.0625,-0.375,-0.06982422,0.04248047,0.9790039,0.02099609,0.1953125,-0.6875
1281,0.625,0,-0.4375,-0.07373047,0.03076172,0.9750977,0.02099609,0.1953125,-0.6875
1282,0.1875,-0.1875,-0.5625,-0.06201172,0.04248047,0.9868164,0.02099609,0.1953125,-0.6875
1283,0.5625,-0.25,-0.875,-0.05810547,0.03076172,0.9829102,0.02685547,0.1953125,-0.6889648
1284,-0.125,-0.3125,-0.1875,-0.05029297,0.06201172,0.9868164,0.02685547,0.1953125,-0.6889648
1285,0.3125,0.0625,-0.75,-0.06201172,0.02294922,0.9594727,0.02685547,0.1953125,-0.6889648
1286,0.0625,0.25,-0.375,-0.05029297,0.03857422,0.9829102,0.02685547,0.1967773,-0.6933594
1287,0.3125,-0.3125,-1.0625,-0.03857422,0.03857422,0.9633789,0.02685547,0.1967773,-0.6933594
1288,0.3125,-0.25,-0.5,-0.05810547,0.05810547,0.9711914,0.02685547,0.1967773,-0.6933594
1289,0.25,0.3125,-0.125,-0.05810547,0.03857422,0.9829102,0.02685547,0.1967773,-0.6933594
1290,0.3125,-0.125,-0.375,-0.05810547,0.03076172,0.9711914,0.02685547,0.1967773,-0.6933594
1291,0.25,-0.625,-0.0625,-0.05810547,0.03076172,0.9868164,0.02685547,0.1967773,-0.6933594
1292,0.5625,0.3125,-0.625,-0.06591797,0.04638672,0.9907227,0.02685547,0.1967773,-0.6933594
1293,0.1875,0.0625,-0.8125,-0.07373047,0.03466797,0.9829102,0.02685547,0.1967773,-0.6933594
1294,0.3125,-0.1875,-0.875,-0.06982422,0.03857422,0.9790039,0.02685547,0.1967773,-0.6933594
1295,0.5625,-0.1875,-0.625,-0.07373047,0.03857422,0.9633789,0.02685547,0.1967773,-0.6933594
1296,0,0.5,-0.1875,-0.05810547,0.04638672,0.9594727,0.02197266,0.190918,-0.6972656
1297,0.375,-0.125,-0.4375,-0.05810547,0.04248047,0.9750977,0.02197266,0.190918,-0.6972656
1298,0.1875,0,-0.25,-0.04638672,0.03466797,0.9633789,0.02197266,0.190918,-0.6972656
1299,-0.0625,-0.3125,-0.5625,-0.07373047,0.04248047,0.9829102,0.02197266,0.190918,-0.6972656
1300,0.5,0.1875,-0.5,-0.06201172,0.03076172,0.9868164,0.02197266,0.190918,-0.6972656
1301,-0.125,-0.25,-1,-0.05419922,0.05029297,0.9711914,0.02197266,0.190918,-0.6972656
1302,1.125,-0.375,-0.5625,-0.05029297,0.01513672,0.9868164,0.02197266,0.190918,-0.6972656
1303,0.1875,-0.25,-0.3125,-0.03466797,0.03857422,0.9829102,0.03466797,0.2011719,-0.6948242
1304,0.1875,-0.1875,-0.125,-0.07373047,0.03466797,0.9829102,0.03466797,0.2011719,-0.6948242
1305,0.25,-0.1875,-0.625,-0.05810547,0.03466797,0.9829102,0.03466797,0.2011719,-0.6948242
1306,0.375,0.25,-0.4375,-0.07373047,0.04638672,0.9711914,0.02685547,0.1918945,-0.6918945
1307,0.3125,0,-0.5625,-0.08154297,0.03857422,0.9711914,0.02685547,0.1918945,-0.6918945
1308,0,-0.5625,-0.6875,-0.03857422,0.02685547,0.9516602,0.02685547,0.1918945,-0.6918945
1309,0.1875,-0.5,-0.8125,-0.06201172,0.02294922,0.9477539,0.03125,0.1953125,-0.6806641
1310,0.1875,-0.125,-0.5625,-0.08544922,0.05419922,0.9711914,0.03125,0.1953125,-0.6806641
1311,0.0625,-0.1875,-0.75,-0.06201172,0.03857422,0.9711914,0.03125,0.1953125,-0.6806641
1312,0.375,0,-0.875,-0.04638672,0.01513672,0.9711914,0.03125,0.1953125,-0.6806641
1313,0.5625,-0.25,-0.4375,-0.04248047,0.03466797,0.9633789,0.02685547,0.1953125,-0.6918945
1314,0.5,-0.5,-0.5,-0.07763672,0.03466797,0.9711914,0.02685547,0.1953125,-0.6918945
1315,0.625,0.3125,-0.1875,-0.06201172,0.01513672,0.9594727,0.02685547,0.1953125,-0.6918945
1316,0.9375,-0.1875,-0.625,-0.05029297,0.05029297,0.9750977,0.02783203,0.1875,-0.6850586
1317,0.3125,-0.1875,-0.1875,-0.05810547,0.05029297,0.9750977,0.02783203,0.1875,-0.6850586
1318,0.5,0.0625,-0.8125,-0.05029297,0.03076172,0.9829102,0.02783203,0.1875,-0.6850586
1319,0.5,-0.3125,-0.25,-0.05419922,0.05029297,0.9868164,0.02783203,0.1894531,-0.6777344
1320,0.625,-0.0625,-0.5625,-0.05810547,0.03076172,0.9711914,0.02783203,0.1894531,-0.6777344
1321,0.25,0,-0.375,-0.05419922,0.03857422,0.9829102,0.02783203,0.1894531,-0.6777344
1322,0.3125,-0.4375,-0.4375,-0.05810547,0.03466797,0.9750977,0.02783203,0.1894531,-0.6777344
1323,0.0625,0.25,-0.25,-0.07373047,0.02685547,0.9711914,0.02441406,0.1943359,-0.7016602
1324,0.1875,-0.1875,-0.5,-0.06201172,0.04248047,0.9750977,0.02441406,0.1943359,-0.7016602
1325,0.0625,-0.1875,-0.1875,-0.06201172,0.02685547,0.9711914,0.02441406,0.1943359,-0.7016602
1326,0.3125,-0.375,-0.8125,-0.05419922,0.04248047,0.9672852,0.02197266,0.1992188,-0.6972656
1327,0.4375,-0.5,-0.25,-0.06982422,0.03076172,0.9594727,0.02197266,0.1992188,-0.6972656
1328,0.375,-0.625,-0.5625,-0.05029297,0.05419922,0.9829102,0.02197266,0.1992188,-0.6972656
1329,0.25,-0.25,-0.625,-0.05419922,0.03857422,0.9829102,0.02783203,0.1933594,-0.6933594
1330,0.375,-0.75,-0.125,-0.06201172,0.03857422,0.9829102,0.02783203,0.1933594,-0.6933594
1331,0.625,-0.375,-0.75,-0.06591797,0.05029297,0.9633789,0.02783203,0.1933594,-0.6933594
1332,-0.0625,-0.25,-0.1875,-0.06982422,0.04248047,0.9750977,0.02783203,0.1933594,-0.6933594
1333,-0.1875,-0.1875,-0.25,-0.04248047,0.03466797,0.9868164,0.02880859,0.1943359,-0.6918945
1334,0.5625,-0.125,-0.25,-0.05029297,0.05419922,0.9750977,0.02880859,0.1943359,-0.6918945
1335,-0.0625,-0.4375,-0.5625,-0.05419922,0.02685547,0.9672852,0.02880859,0.1943359,-0.6918945
1336,0.6875,-0.5625,-0.375,-0.06201172,0.02685547,0.9672852,0.02685547,0.1943359,-0.6875
1337,0.25,-0.5625,-0.375,-0.05029297,0.03076172,0.9868164,0.02685547,0.1943359,-0.6875
1338,0.1875,-0.1875,-0.5625,-0.03466797,0.02685547,0.9790039,0.02685547,0.1943359,-0.6875
1339,0.125,-0.5,-0.625,-0.05810547,0.05029297,0.9829102,0.02197266,0.1977539,-0.6904297
1340,0.375,-0.5625,-0.5,-0.05419922,0.03076172,0.9829102,0.02197266,0.1977539,-0.6904297
1341,0.375,-0.125,-0.5,-0.07373047,0.02294922,0.9711914,0.02197266,0.1977539,-0.6904297
1342,0.5625,-0.3125,-0.5,-0.05419922,0.04638672,0.9672852,0.02197266,0.1977539,-0.6904297
1343,0,-0.3125,-0.75,-0.06982422,0.05029297,0.9750977,0.02197266,0.1977539,-0.6904297
1344,0.6875,-0.25,-0.1875,-0.04638672,0.02294922,0.9829102,0.02197266,0.1977539,-0.6904297
1345,0.5,0.1875,-0.625,-0.05029297,0.05029297,0.9672852,0.02197266,0.1977539,-0.6904297
1346,0.4375,0,-0.0625,-0.05029297,0.01904297,0.9594727,0.02880859,0.1943359,-0.6821289
1347,0.5625,-0.0625,-0.5625,-0.06591797,0.03076172,0.9750977,0.02880859,0.1943359,-0.6821289
1348,0.3125,0,-0.5,-0.05810547,0.04638672,0.9672852,0.02880859,0.1943359,-0.6821289
1349,0.1875,0.1875,-0.625,-0.06591797,0.05810547,0.9516602,0.02441406,0.1918945,-0.6904297
1350,0.125,-0.625,-0.1875,-0.05810547,0.04638672,0.9985352,0.02441406,0.1918945,-0.6904297
1351,0,-0.625,0,-0.05810547,0.04248047,0.9868164,0.02441406,0.1918945,-0.6904297
1352,0.5,0.25,-1.125,-0.05029297,0.04248047,0.9594727,0.02441406,0.1918945,-0.6904297
