Packet number,Gyroscope X (deg/s),Gyroscope Y (deg/s),Gyroscope Z (deg/s),Accelerometer X (G),Accelerometer Y (G),Accelerometer Z (G),Magnetometer X (G),Magnetometer Y (G),Magnetometer Z (G)
3,0,0,0,0.48,0.12,1.02,,,
5,0.06,0.08,0.2,-0.14,0.03,1.02,,,
6,-0.08,0.12,0.07,-0.14,0.03,1.02,,,
8,-0.05,0.03,0.03,-0.14,0.03,1.02,,,
9,0.12,-0.15,-0.2,-0.14,0.03,1.02,,,
11,-0.11,-0.2,-0.08,-0.13,0.03,1.03,,,
12,-0.02,0.13,0.02,-0.14,0.03,1.02,,,
14,-0.03,0.62,-0.04,-0.14,0.03,1.02,,,
15,-0.21,1.09,0.09,-0.13,0.04,1.01,,,
17,-0.03,0.55,-0.05,-0.14,0.03,1.02,,,
18,0.05,0.44,-0.06,-0.14,0.04,1.02,,,
20,0.27,-0.1,0.26,-0.13,0.03,1.02,,,
21,-0.12,-0.2,0.17,-0.14,0.03,1.02,,,
23,-0.07,-0.1,0.15,-0.14,0.04,1.02,,,
24,-0.15,0.38,-0.07,-0.13,0.03,1.02,,,
26,0.11,0.43,0.2,-0.14,0.03,1.02,,,
27,0.1,0.28,-0.21,-0.14,0.03,1.02,,,
29,0.01,0.09,-0.23,-0.13,0.04,1.02,,,
30,0.05,0.12,-0.04,-0.14,0.03,1.02,,,
32,0.05,0.06,-0.15,-0.13,0.04,1.03,,,
33,0.11,0.04,-0.1,-0.14,0.03,1.01,,,
35,0.19,-0.26,-0.04,-0.13,0.04,1.02,,,
36,0.04,-0.26,0.29,-0.14,0.03,1.02,,,
38,0.07,-0.39,-0.19,-0.13,0.03,1.02,,,
39,0.16,-0.39,-0.09,-0.13,0.03,1.02,,,
41,0.2,0.02,0.07,-0.13,0.03,1.02,,,
42,0.16,-0.07,0.04,-0.14,0.04,1.01,,,
44,-0.05,-0.48,0.21,-0.14,0.03,1.02,,,
45,-0.18,-0.42,0.15,-0.14,0.03,1.01,,,
47,-0.07,-0.4,0.05,-0.13,0.03,1.02,,,
48,-0.21,0.15,0.2,-0.14,0.03,1.02,,,
50,-0.26,0.08,-0.12,-0.13,0.03,1.02,,,
51,0.03,0.34,-0.01,-0.13,0.03,1.02,,,
53,0.07,0.54,0.03,-0.13,0.04,1.02,,,
54,0.24,0.44,0.01,-0.14,0.03,1.03,,,
56,0,0.45,-0.04,-0.14,0.03,1.02,,,
57,-0.07,0.8,-0.19,-0.14,0.03,1.02,,,
59,-0.43,1.48,-0.07,-0.14,0.03,1.02,,,
60,-0.13,1.32,-0.09,-0.14,0.03,1.02,,,
62,-0.28,1.12,-0.03,-0.14,0.04,1.02,,,
63,-0.27,0.72,0.12,-0.14,0.04,1.03,,,
65,0.05,0.33,0.23,-0.14,0.04,1.02,,,
66,0.01,0.2,0.18,-0.14,0.03,1.03,,,
68,-0.02,-0.68,0.17,-0.14,0.03,1.02,,,
69,0.02,-0.47,0.11,-0.14,0.03,1.02,,,
71,-0.12,-0.82,0.26,-0.14,0.03,1.02,,,
72,0.23,-0.99,0.21,-0.14,0.03,1.02,,,
74,0.24,-0.97,0.16,-0.14,0.04,1.02,,,
75,0.4,-0.7,0.22,-0.14,0.03,1.02,,,
77,0.05,-0.75,-0.03,-0.14,0.03,1.03,,,
78,0.19,-0.26,0.29,-0.14,0.03,1.02,,,
80,-0.03,-0.02,-0.08,-0.13,0.03,1.02,,,
81,-0.12,0.66,0.07,-0.13,0.04,1.02,,,
83,-0.51,1.07,-0.12,-0.14,0.03,1.02,,,
84,-0.34,0.83,0.18,-0.14,0.03,1.02,,,
86,-0.22,0.94,-0.18,-0.14,0.04,1.02,,,
87,-0.25,0.79,0.04,-0.14,0.03,1.02,,,
89,-0.08,0.18,-0.11,-0.14,0.03,1.03,,,
90,0.07,0.18,0.01,-0.14,0.03,1.02,,,
92,0.17,0.06,-0.1,-0.13,0.03,1.02,,,
93,0.07,-0.13,0.08,-0.14,0.03,1.02,,,
95,0.07,-0.39,-0.1,-0.14,0.03,1.02,,,
96,0.04,-0.66,0.08,-0.14,0.03,1.02,,,
98,0.05,-0.81,-0.06,-0.14,0.04,1.02,,,
100,0.01,-0.83,-0.06,-0.14,0.03,1.02,,,
102,-0.02,-0.51,0,-0.14,0.03,1.02,,,
103,-0.07,0.06,-0.18,-0.14,0.03,1.02,,,
105,-0.34,0.26,-0.19,-0.14,0.03,1.02,,,
106,-0.09,0.42,-0.13,-0.14,0.04,1.03,,,
108,0.11,0.42,-0.12,-0.13,0.03,1.02,,,
109,0.04,0.19,-0.13,-0.13,0.04,1.02,,,
111,-0.04,0.48,-0.09,-0.14,0.03,1.02,,,
112,0.15,0.27,-0.25,-0.14,0.03,1.02,,,
114,-0.05,-0.08,0.16,-0.14,0.04,1.02,,,
115,0.28,-0.42,0.03,-0.14,0.04,1.02,,,
117,0.25,-0.3,-0.09,-0.14,0.03,1.02,,,
118,-0.16,-0.04,0.2,-0.14,0.03,1.02,,,
120,0,0.03,0.08,-0.14,0.04,1.03,,,
121,0.01,0,-0.15,-0.14,0.03,1.02,,,
123,-0.07,0.01,0.02,-0.14,0.03,1.02,,,
124,0.04,-0.25,0.18,-0.14,0.04,1.03,,,
126,-0.12,-0.36,-0.29,-0.14,0.03,1.02,,,
127,-0.19,-0.15,0.04,-0.14,0.04,1.02,,,
129,-0.12,0.11,0.13,-0.14,0.04,1.02,,,
130,0.15,0.34,0.23,-0.14,0.04,1.02,,,
132,-0.03,0.19,0.09,-0.14,0.04,1.02,,,
133,0.01,0.59,-0.27,-0.14,0.04,1.02,,,
135,-0.16,0.29,0.33,-0.14,0.03,1.02,,,
136,0,-0.04,-0.06,-0.14,0.04,1.02,,,
138,0.15,-0.13,-0.16,-0.14,0.03,1.03,,,
139,0.2,0.15,0.26,-0.13,0.03,1.02,,,
141,-0.15,0.25,0.1,-0.13,0.03,1.02,,,
142,0.17,-0.13,-0.16,-0.14,0.03,1.02,,,
144,-0.01,-0.19,0.12,-0.14,0.03,1.02,,,
145,-0.14,-0.07,0.15,-0.14,0.03,1.02,,,
147,0.02,-0.25,-0.25,-0.13,0.04,1.02,,,
148,-0.1,0.17,-0.02,-0.14,0.03,1.02,,,
150,0.3,0.06,0.13,-0.13,0.04,1.03,,,
151,-0.02,0.47,-0.01,-0.13,0.03,1.02,,,
153,-0.1,0.15,-0.09,-0.14,0.03,1.02,,,
154,-0.12,0.32,-0.03,-0.14,0.04,1.02,,,
156,-0.25,0.14,0.23,-0.13,0.03,1.02,,,
157,-0.04,-0.29,0.26,-0.14,0.03,1.02,,,
159,0.11,-0.21,0,-0.14,0.03,1.02,,,
160,-0.02,0.4,0.12,-0.14,0.03,1.03,,,
162,-0.27,0.06,-0.06,-0.14,0.03,1.02,,,
163,-0.15,0.21,-0.12,-0.14,0.04,1.02,,,
165,-0.13,0.38,0.08,-0.14,0.03,1.02,,,
166,0.19,-0.08,0.02,-0.14,0.03,1.02,,,
168,0.29,0.28,0.07,-0.14,0.03,1.02,,,
169,-0.04,0.36,-0.06,-0.13,0.03,1.02,,,
171,0.1,0.21,-0.07,-0.14,0.03,1.02,,,
172,0.15,-0.07,-0.06,-0.14,0.03,1.02,,,
174,0.03,-0.25,0.13,-0.13,0.03,1.02,,,
175,0.03,-0.25,-0.03,-0.14,0.03,1.02,,,
177,0.03,0.07,0.09,-0.14,0.04,1.02,,,
178,0.03,0.35,0.15,-0.14,0.03,1.02,,,
180,0.14,0.12,0.14,-0.14,0.04,1.02,,,
181,0.11,0.03,0.13,-0.14,0.04,1.03,,,
183,0.04,0.04,0.12,-0.13,0.04,1.02,,,
184,0.11,-0.3,0.13,-0.13,0.03,1.02,,,
186,0.16,-0.03,-0.15,-0.14,0.03,1.02,,,
187,-0.1,0.23,0.06,-0.14,0.03,1.02,,,
189,-0.22,-0.29,0.29,-0.13,0.04,1.02,,,
190,0.07,0.04,-0.11,-0.14,0.04,1.02,,,
192,0.19,0.27,-0.28,-0.14,0.04,1.02,,,
193,-0.19,0.19,0.22,-0.14,0.03,1.02,,,
195,-0.07,0.4,-0.06,-0.13,0.03,1.02,,,
197,0.03,0.19,-0.03,-0.14,0.03,1.02,,,
199,0.27,-0.11,0.24,-0.14,0.04,1.02,,,
200,-0.13,0.24,0.13,-0.14,0.03,1.02,,,
202,-0.31,0.32,-0.12,-0.14,0.04,1.02,,,
203,0.07,0.45,0.1,-0.14,0.03,1.02,,,
205,-0.09,0.23,0.26,-0.14,0.04,1.02,,,
206,-0.04,0.06,0.13,-0.14,0.03,1.01,,,
208,0.23,-0.32,-0.15,-0.14,0.04,1.02,,,
209,0.04,-0.4,-0.09,-0.14,0.03,1.03,,,
211,0.17,-0.07,-0.09,-0.13,0.04,1.02,,,
212,0.09,-0.03,0.13,-0.14,0.04,1.02,,,
214,-0.08,0.22,0.14,-0.13,0.03,1.02,,,
215,-0.07,-0.1,0.04,-0.14,0.04,1.02,,,
217,-0.05,-0.04,-0.11,-0.14,0.03,1.02,,,
218,-0.21,0,0.19,-0.13,0.04,1.02,,,
220,0.08,0.35,-0.09,-0.14,0.03,1.02,,,
221,-0.02,-0.16,-0.21,-0.14,0.03,1.02,,,
223,-0.17,0.64,0.01,-0.13,0.04,1.02,,,
224,-0.02,0.77,0.06,-0.13,0.04,1.02,,,
226,0.03,0.41,0,-0.14,0.04,1.02,,,
227,0.04,0.05,-0.06,-0.14,0.04,1.02,,,
229,0.1,-0.05,0.28,-0.14,0.04,1.02,,,
230,0.07,-0.36,0.01,-0.14,0.03,1.03,,,
232,-0.1,-0.03,0.04,-0.14,0.03,1.02,,,
233,0.18,-0.17,0.08,-0.14,0.03,1.02,,,
235,-0.01,0.12,-0.09,-0.14,0.04,1.02,,,
236,-0.37,0.29,0.13,-0.13,0.04,1.02,,,
238,-0.47,0.33,0.17,-0.14,0.03,1.02,,,
239,0.11,-0.04,-0.28,-0.14,0.03,1.02,,,
241,0.14,0.1,-0.06,-0.13,0.03,1.02,,,
242,0.03,-0.47,0.03,-0.14,0.03,1.02,,,
244,0.2,-0.15,0.2,-0.14,0.03,1.02,,,
245,-0.01,-0.32,-0.03,-0.14,0.04,1.01,,,
247,0.17,-0.63,0.03,-0.14,0.03,1.02,,,
248,-0.02,-0.18,0.17,-0.13,0.03,1.03,,,
250,0.27,-0.1,-0.01,-0.13,0.04,1.02,,,
251,0.32,0.22,-0.08,-0.13,0.03,1.02,,,
253,-0.25,0.43,-0.18,-0.13,0.03,1.02,,,
254,-0.25,0.98,0.29,-0.14,0.03,1.01,,,
256,-0.28,0.61,0.03,-0.14,0.03,1.02,,,
257,-0.03,0.14,0.07,-0.14,0.03,1.03,,,
259,-0.05,0.1,0.17,-0.13,0.03,1.02,,,
260,0.21,0.12,0.04,-0.13,0.03,1.02,,,
262,-0.02,0.45,-0.24,-0.14,0.03,1.02,,,
263,-0.21,0,-0.11,-0.14,0.04,1.02,,,
265,0.12,-0.07,-0.28,-0.14,0.03,1.02,,,
266,-0.15,0.06,0.29,-0.14,0.03,1.02,,,
268,0.29,-0.2,-0.02,-0.13,0.03,1.02,,,
269,0.09,-0.16,0.07,-0.14,0.03,1.02,,,
271,-0.12,0,-0.2,-0.14,0.04,1.02,,,
272,0.01,-0.01,0.06,-0.13,0.03,1.03,,,
274,-0.06,0,0.01,-0.13,0.03,1.02,,,
275,-0.02,0.01,-0.08,-0.14,0.03,1.02,,,
277,0.12,0.18,0.15,-0.14,0.03,1.02,,,
278,-0.09,-0.33,0.03,-0.14,0.04,1.02,,,
280,0.11,0.23,-0.03,-0.13,0.03,1.02,,,
281,0.01,0.34,0.08,-0.13,0.04,1.02,,,
283,0.04,0.45,0.08,-0.14,0.03,1.03,,,
284,-0.05,0.38,-0.06,-0.14,0.04,1.02,,,
286,-0.14,-0.11,-0.08,-0.13,0.03,1.02,,,
287,-0.19,0,0.15,-0.13,0.03,1.02,,,
289,-0.11,0.03,0.08,-0.14,0.04,1.02,,,
290,-0.09,0.09,-0.03,-0.14,0.03,1.02,,,
292,-0.16,0.03,0.07,-0.13,0.04,1.02,,,
294,0.02,-0.07,-0.01,-0.13,0.04,1.02,,,
296,0.11,-0.11,0.2,-0.13,0.04,1.02,,,
297,0.3,-0.36,-0.02,-0.14,0.03,1.02,,,
299,0.17,-0.24,0.18,-0.13,0.04,1.02,,,
300,0.3,-0.04,0.1,-0.13,0.03,1.02,,,
302,-0.26,-0.11,0.04,-0.14,0.03,1.02,,,
303,-0.31,-0.03,0.17,-0.13,0.03,1.01,,,
305,0.07,0.22,0.2,-0.14,0.03,1.02,,,
306,0,0.22,0.14,-0.14,0.03,1.02,,,
308,0.22,0.41,-0.12,-0.13,0.04,1.02,,,
309,0.17,0.62,-0.16,-0.13,0.03,1.02,,,
311,-0.03,0.64,-0.15,-0.14,0.03,1.02,,,
312,0.24,0.41,0.06,-0.13,0.03,1.03,,,
314,0.06,0.16,0.01,-0.14,0.03,1.02,,,
315,-0.2,0.08,-0.09,-0.13,0.03,1.02,,,
317,-0.03,-0.16,-0.15,-0.14,0.04,1.02,,,
318,0,-0.57,0.17,-0.14,0.04,1.01,,,
320,0.13,-0.58,0.05,-0.13,0.03,1.02,,,
321,0.24,-0.28,-0.02,-0.14,0.03,1.02,,,
323,-0.02,0.02,0.22,-0.14,0.03,1.02,,,
324,0,0.04,0.04,-0.14,0.03,1.02,,,
326,0.17,0.21,-0.16,-0.13,0.04,1.03,,,
327,0.2,0.18,-0.03,-0.14,0.03,1.03,,,
329,0.07,0,-0.05,-0.14,0.03,1.02,,,
330,-0.14,0.09,0.03,-0.13,0.03,1.02,,,
332,0.03,0.15,0.04,-0.13,0.03,1.02,,,
333,-0.03,0.23,0.09,-0.14,0.03,1.02,,,
335,-0.19,0.19,0.28,-0.14,0.03,1.01,,,
336,-0.02,0.09,0.01,-0.14,0.03,1.02,,,
338,-0.1,0.47,-0.19,-0.13,0.03,1.02,,,
339,0.03,0.51,0.29,-0.14,0.04,1.02,,,
341,0.23,0.34,0.1,-0.13,0.04,1.02,,,
342,0.14,0.24,0.17,-0.14,0.04,1.02,,,
344,0.14,0.14,-0.12,-0.14,0.03,1.02,,,
345,-0.15,0.16,0.08,-0.13,0.03,1.02,,,
347,0.03,0.08,-0.12,-0.14,0.03,1.02,,,
348,0.06,-0.13,0.2,-0.14,0.03,1.01,,,
350,0,-0.04,-0.15,-0.14,0.03,1.02,,,
351,-0.17,-0.03,0.03,-0.13,0.04,1.02,,,
353,0.2,-0.2,0.21,-0.14,0.03,1.02,,,
354,0.02,-0.07,0.32,-0.14,0.04,1.02,,,
356,-0.07,0.09,-0.02,-0.13,0.03,1.02,,,
357,0.01,-0.26,-0.06,-0.13,0.03,1.02,,,
359,-0.02,-0.21,-0.08,-0.13,0.03,1.01,,,
360,-0.11,0.03,0.01,-0.13,0.04,1.02,,,
362,-0.02,-0.02,-0.01,-0.14,0.03,1.02,,,
363,0.04,0.4,0.01,-0.14,0.03,1.02,,,
365,0.05,0.06,-0.01,-0.14,0.04,1.02,,,
366,0.03,0.25,0.08,-0.14,0.03,1.02,,,
368,-0.04,0.25,-0.01,-0.14,0.03,1.02,,,
369,0.11,0.1,-0.02,-0.13,0.03,1.02,,,
371,-0.04,-0.1,-0.09,-0.13,0.03,1.02,,,
372,0.05,-0.43,0,-0.13,0.03,1.02,,,
374,-0.05,-0.38,0.26,-0.13,0.03,1.02,,,
375,0.13,-0.46,0.24,-0.13,0.03,1.03,,,
377,0.17,-0.32,0.01,-0.13,0.03,1.01,,,
378,-0.09,0.35,0.11,-0.13,0.03,1.02,,,
380,-0.38,1.65,-0.06,-0.14,0.04,1.02,,,
381,-0.15,1.16,-0.25,-0.14,0.04,1.02,,,
383,0.02,0.25,-0.09,-0.14,0.03,1.02,,,
384,0.25,0.06,0.01,-0.14,0.04,1.02,,,
386,-0.04,-0.06,0.2,-0.14,0.04,1.02,,,
387,0,-0.18,-0.22,-0.14,0.04,1.02,,,
389,0.2,0.39,-0.08,-0.14,0.03,1.02,,,
392,0.12,-0.07,-0.14,-0.13,0.03,1.03,,,
394,0.12,-0.31,-0.03,-0.14,0.03,1.03,,,
395,0.06,-0.55,-0.06,-0.13,0.03,1.02,,,
397,0.01,-0.76,0.09,-0.14,0.03,1.02,,,
398,-0.18,-0.54,0.29,-0.14,0.03,1.02,,,
400,0.01,0.28,0.05,-0.13,0.04,1.02,,,
401,-0.23,1.02,-0.1,-0.13,0.03,1.02,,,
403,-0.09,0.72,0.07,-0.14,0.03,1.02,,,
404,0.05,0.38,0.07,-0.14,0.03,1.02,,,
406,-0.33,0.95,-0.09,-0.13,0.04,1.01,,,
407,-0.38,0.83,-0.06,-0.13,0.03,1.02,,,
409,-0.26,0.88,-0.12,-0.14,0.03,1.02,,,
410,0.33,0.66,0.11,-0.14,0.03,1.02,,,
412,-0.07,0.14,0.04,-0.13,0.04,1.02,,,
413,0.07,-0.12,0.1,-0.14,0.03,1.03,,,
415,0.22,-0.64,0.18,-0.14,0.04,1.03,,,
416,0.24,-0.96,-0.05,-0.14,0.03,1.02,,,
418,-0.05,-0.95,-0.12,-0.14,0.03,1.02,,,
419,0.27,-0.62,-0.06,-0.13,0.04,1.02,,,
421,-0.23,0.09,-0.09,-0.14,0.03,1.02,,,
422,-0.13,0,-0.01,-0.14,0.04,1.02,,,
424,0.04,0.03,-0.09,-0.14,0.03,1.02,,,
425,-0.05,0.55,0,-0.13,0.03,1.02,,,
427,-0.25,0.45,-0.11,-0.13,0.04,1.02,,,
428,-0.07,0.67,-0.03,-0.13,0.03,1.02,,,
430,0.29,0.9,-0.13,-0.14,0.04,1.02,,,
431,-0.08,0.77,-0.41,-0.14,0.04,1.01,,,
433,0.1,0.26,0.03,-0.14,0.03,1.02,,,
434,0.1,-0.08,0.04,-0.14,0.03,1.02,,,
436,-0.21,-0.06,-0.03,-0.13,0.03,1.02,,,
437,0.11,-0.08,0.1,-0.14,0.03,1.02,,,
439,-0.31,-0.2,0.22,-0.14,0.03,1.02,,,
440,0,-0.16,0.04,-0.14,0.04,1.01,,,
442,0.14,-0.35,-0.12,-0.14,0.04,1.02,,,
443,0.14,0.1,0.1,-0.13,0.04,1.02,,,
445,0.18,0.29,-0.09,-0.13,0.04,1.02,,,
446,-0.06,0.51,0.07,-0.14,0.03,1.01,,,
448,0.01,0.29,0.1,-0.14,0.03,1.02,,,
449,0.01,0.22,-0.17,-0.14,0.04,1.02,,,
451,0.04,0.08,0.01,-0.13,0.03,1.02,,,
452,-0.11,0.01,0.14,-0.14,0.03,1.02,,,
454,0.15,-0.05,0.23,-0.13,0.03,1.02,,,
455,-0.11,-0.24,0.19,-0.14,0.03,1.02,,,
457,0,-0.11,0.2,-0.14,0.03,1.01,,,
458,0.09,-0.39,0.34,-0.14,0.03,1.02,,,
460,0.32,-0.3,0.22,-0.13,0.03,1.02,,,
461,-0.04,-0.6,0.23,-0.13,0.03,1.02,,,
463,-0.05,-0.4,0.04,-0.13,0.03,1.02,,,
464,0.19,-0.62,0.25,-0.13,0.03,1.02,,,
466,-0.04,0.56,-0.05,-0.13,0.04,1.02,,,
467,-0.38,0.6,-0.08,-0.13,0.03,1.02,,,
469,-0.16,0.54,0.05,-0.13,0.04,1.02,,,
470,-0.33,0.15,0.35,-0.14,0.03,1.02,,,
472,0.07,-0.53,0.36,-0.14,0.04,1.02,,,
473,-0.06,-0.44,0.36,-0.14,0.03,1.02,,,
475,-0.04,-0.07,0.13,-0.13,0.03,1.02,,,
476,-0.02,0.19,0.13,-0.13,0.03,1.02,,,
478,-0.06,0.44,0.23,-0.13,0.03,1.02,,,
479,-0.02,-0.07,0.04,-0.14,0.03,1.02,,,
481,0.17,-0.29,-0.01,-0.14,0.04,1.02,,,
482,0.3,-0.08,0.27,-0.13,0.03,1.02,,,
484,0.24,0.11,-0.12,-0.13,0.03,1.02,,,
485,-0.16,0.33,-0.15,-0.13,0.04,1.03,,,
487,-0.09,0.51,-0.27,-0.14,0.03,1.02,,,
489,-0.11,0.61,-0.11,-0.13,0.03,1.02,,,
491,-0.02,0.21,0.21,-0.14,0.03,1.02,,,
492,0.26,-0.23,0.09,-0.14,0.03,1.02,,,
494,0.01,-0.29,0.19,-0.13,0.04,1.02,,,
495,0.12,-0.37,0.19,-0.13,0.04,1.03,,,
497,0.27,-0.51,0.49,-0.14,0.03,1.02,,,
498,-0.06,-0.5,0.03,-0.14,0.04,1.02,,,
500,0.28,-0.18,0.06,-0.14,0.03,1.02,,,
501,0.11,-0.58,0.03,-0.13,0.04,1.02,,,
503,0.27,-0.94,0.05,-0.13,0.03,1.02,,,
504,0.17,-0.28,0.07,-0.14,0.04,1.02,,,
506,0.01,0.34,0.09,-0.13,0.03,1.02,,,
507,-0.25,0.78,-0.35,-0.13,0.03,1.02,,,
509,-0.12,2.02,0.17,-0.13,0.03,1.01,,,
510,-0.09,3.71,-0.2,-0.13,0.03,1.02,,,
512,-0.3,3.64,-0.23,-0.14,0.03,1.03,,,
513,-0.49,2.67,-0.08,-0.15,0.03,1.02,,,
515,-0.1,2.55,-0.19,-0.15,0.03,1.02,,,
516,-0.14,1.03,0.06,-0.14,0.03,1.03,,,
518,0.2,0.34,-0.18,-0.14,0.04,1.02,,,
519,-0.21,0.79,-0.09,-0.13,0.03,1.02,,,
521,0.17,1.05,-0.47,-0.13,0.03,1.02,,,
522,0.03,0.48,-0.05,-0.14,0.03,1.02,,,
524,0.36,-0.19,-0.44,-0.14,0.03,1.02,,,
525,0.45,-1.13,0.14,-0.14,0.03,1.02,,,
527,0.27,-1.87,-0.08,-0.14,0.03,1.02,,,
528,0.66,-2.13,-0.15,-0.14,0.03,1.02,,,
530,0.19,-1.47,0.05,-0.14,0.03,1.02,,,
531,0.23,-0.69,-0.18,-0.14,0.04,1.01,,,
533,0.05,-0.2,-0.26,-0.14,0.04,1.02,,,
534,0.46,0.2,0.05,-0.14,0.04,1.02,,,
536,-0.25,0.42,-0.03,-0.14,0.04,1.02,,,
537,-0.31,0.4,-0.04,-0.14,0.03,1.02,,,
539,-0.28,0.11,0.22,-0.14,0.04,1.02,,,
540,-0.22,0.32,0.15,-0.13,0.03,1.02,,,
542,0,0.66,0.07,-0.13,0.03,1.02,,,
543,0.12,0.25,-0.17,-0.14,0.03,1.02,,,
545,-0.01,0.18,-0.04,-0.14,0.03,1.02,,,
546,0.3,0.19,-0.18,-0.13,0.03,1.02,,,
548,-0.04,-0.06,-0.06,-0.14,0.04,1.02,,,
549,0.03,-0.18,0.17,-0.14,0.04,1.01,,,
551,0.12,0.12,0.34,-0.13,0.03,1.02,,,
552,-0.23,0.21,0.17,-0.14,0.04,1.02,,,
554,-0.28,0.25,0.2,-0.14,0.03,1.02,,,
555,-0.25,0.54,0.16,-0.14,0.03,1.02,,,
557,-0.2,0.93,0.07,-0.14,0.04,1.02,,,
558,-0.06,0.61,0.11,-0.14,0.03,1.02,,,
560,0.07,0.72,-0.03,-0.14,0.03,1.02,,,
561,-0.15,0.58,-0.26,-0.14,0.03,1.02,,,
563,0.06,0.82,-0.12,-0.14,0.03,1.03,,,
564,-0.09,0.54,0,-0.14,0.03,1.02,,,
566,0.17,0.12,0.1,-0.14,0.03,1.02,,,
567,-0.22,-0.21,0.07,-0.14,0.04,1.02,,,
569,0.25,-1.14,0,-0.14,0.03,1.02,,,
570,0.3,-1.71,-0.06,-0.14,0.04,1.02,,,
572,0.43,-1.19,-0.25,-0.14,0.03,1.01,,,
573,0.24,-1.16,-0.1,-0.13,0.03,1.02,,,
575,0.25,-1.42,-0.08,-0.14,0.04,1.03,,,
576,-0.03,-2.2,-0.31,-0.14,0.04,1.02,,,
578,0.16,-1.51,0.2,-0.13,0.04,1.02,,,
579,0.24,-0.75,0.26,-0.13,0.04,1.02,,,
581,-0.34,-0.89,0.27,-0.13,0.04,1.02,,,
582,-0.03,-0.06,-0.05,-0.14,0.03,1.02,,,
584,-0.22,1.75,-0.28,-0.13,0.03,1.02,,,
586,-0.47,2.17,-0.13,-0.13,0.04,1.02,,,
588,-0.2,1.13,-0.06,-0.14,0.04,1.02,,,
589,-0.04,1.35,-0.02,-0.14,0.03,1.02,,,
591,-0.38,1.35,-0.12,-0.13,0.04,1.02,,,
592,-0.34,0.96,-0.16,-0.14,0.03,1.02,,,
594,0.21,0.84,0.17,-0.14,0.04,1.02,,,
595,0.17,0.67,0.13,-0.14,0.04,1.02,,,
597,0.04,0.5,0.13,-0.14,0.03,1.02,,,
598,-0.16,0.2,0.1,-0.13,0.03,1.02,,,
600,-0.16,0.63,-0.09,-0.14,0.04,1.02,,,
601,0.01,-0.33,-0.06,-0.14,0.03,1.03,,,
603,0.34,-0.28,-0.17,-0.14,0.03,1.02,,,
604,0.34,-0.06,-0.22,-0.13,0.03,1.03,,,
606,0.42,-1.44,-0.12,-0.14,0.04,1.02,,,
607,0.51,-2.35,0.04,-0.14,0.04,1.02,,,
609,0.23,-1.2,0.08,-0.13,0.03,1.02,,,
610,0,-0.04,0.12,-0.13,0.03,1.02,,,
612,-0.15,0.38,-0.08,-0.13,0.04,1.02,,,
613,-0.15,0.13,0.3,-0.14,0.04,1.02,,,
615,-0.25,0.77,-0.11,-0.14,0.03,1.02,,,
616,-0.02,1.67,0.22,-0.13,0.04,1.02,,,
618,-0.22,2.43,0.01,-0.14,0.03,1.02,,,
619,-0.19,1.45,0,-0.14,0.03,1.02,,,
621,0.06,0.51,-0.04,-0.14,0.04,1.02,,,
622,0.1,-0.14,-0.04,-0.14,0.03,1.02,,,
624,0.17,0.24,-0.06,-0.13,0.03,1.02,,,
625,0.04,0.13,-0.16,-0.14,0.04,1.03,,,
627,0.2,-0.12,-0.18,-0.14,0.03,1.02,,,
628,0.02,-0.77,0.15,-0.14,0.03,1.02,,,
630,0.24,-1.84,0.04,-0.14,0.03,1.03,,,
631,-0.06,-2.06,0.03,-0.13,0.03,1.02,,,
633,0.19,-0.56,-0.01,-0.13,0.03,1.02,,,
634,-0.02,-0.46,0.1,-0.14,0.04,1.02,,,
636,0.09,0.09,-0.25,-0.13,0.03,1.01,,,
637,-0.27,1.29,-0.18,-0.13,0.03,1.02,,,
639,-0.19,1.45,0.06,-0.14,0.04,1.02,,,
640,0.01,1.02,0.13,-0.14,0.04,1.02,,,
642,-0.04,0.92,0.13,-0.14,0.03,1.02,,,
643,-0.01,1.11,0.12,-0.14,0.03,1.02,,,
645,-0.54,0.67,0.07,-0.14,0.04,1.02,,,
646,-0.22,0.45,-0.05,-0.13,0.03,1.02,,,
648,-0.03,-0.49,0.07,-0.14,0.04,1.03,,,
649,0.31,-0.49,-0.09,-0.14,0.04,1.02,,,
651,0.24,-0.46,-0.09,-0.14,0.03,1.02,,,
652,0.34,-1.03,0.01,-0.14,0.03,1.02,,,
654,0.04,-1.27,0.01,-0.14,0.04,1.02,,,
655,0.04,-1.33,0.17,-0.14,0.03,1.01,,,
657,-0.02,0.2,0.05,-0.13,0.04,1.02,,,
658,-0.36,1.07,-0.09,-0.13,0.04,1.02,,,
660,0.05,0.48,0.04,-0.14,0.04,1.02,,,
661,-0.28,0.3,0.13,-0.13,0.04,1.02,,,
663,-0.12,0.06,0.13,-0.13,0.03,1.02,,,
664,-0.09,0.18,-0.12,-0.14,0.03,1.02,,,
666,0.11,0.29,0.03,-0.13,0.03,1.02,,,
667,-0.18,0.58,-0.06,-0.13,0.04,1.02,,,
669,0.08,0.33,-0.01,-0.14,0.03,1.02,,,
670,-0.03,0.41,0,-0.13,0.03,1.03,,,
672,-0.09,1.29,-0.03,-0.13,0.04,1.02,,,
673,-0.31,2.81,-0.16,-0.13,0.03,1.02,,,
675,-0.37,0.95,0.01,-0.14,0.04,1.03,,,
676,0.1,-1.35,0,-0.14,0.03,1.02,,,
678,-0.01,-1.36,0.1,-0.13,0.03,1.02,,,
679,0.14,-0.14,0.2,-0.13,0.03,1.02,,,
681,0.24,-0.4,-0.06,-0.14,0.03,1.02,,,
683,0.24,-0.19,0.3,-0.14,0.03,1.03,,,
685,-0.04,-0.93,0.13,-0.14,0.04,1.02,,,
686,-0.01,-1.34,0.14,-0.14,0.04,1.02,,,
688,0.27,-0.94,0.1,-0.14,0.04,1.02,,,
689,0.11,-0.1,0.17,-0.14,0.04,1.02,,,
691,-0.06,-0.11,-0.1,-0.14,0.03,1.02,,,
692,-0.12,0.37,0.07,-0.14,0.03,1.02,,,
694,0,1.49,-0.12,-0.13,0.03,1.01,,,
695,-0.02,2.24,-0.31,-0.14,0.03,1.02,,,
697,-0.21,1.39,-0.41,-0.14,0.04,1.03,,,
698,0.33,0.64,-0.16,-0.14,0.04,1.02,,,
700,0.17,-0.87,-0.1,-0.14,0.03,1.02,,,
701,0.35,-2.54,-0.12,-0.14,0.04,1.02,,,
703,0.25,-1.91,0.23,-0.13,0.03,1.02,,,
704,0.18,-0.06,-0.06,-0.13,0.04,1.02,,,
706,0.05,0.19,0.06,-0.13,0.03,1.02,,,
707,-0.04,0.32,0.01,-0.13,0.03,1.02,,,
709,0.33,0.55,-0.03,-0.14,0.03,1.02,,,
710,-0.14,0.56,0.1,-0.14,0.04,1.02,,,
712,-0.34,-0.29,0.04,-0.14,0.03,1.02,,,
713,0.14,0.09,0.25,-0.14,0.03,1.02,,,
715,-0.12,0.71,-0.03,-0.13,0.03,1.03,,,
716,0.2,0.35,-0.05,-0.13,0.03,1.02,,,
718,-0.18,0.22,-0.02,-0.13,0.04,1.02,,,
719,0.11,0.71,0,-0.13,0.03,1.02,,,
721,0.01,0.32,0.11,-0.13,0.04,1.02,,,
722,-0.13,-0.43,0.04,-0.14,0.03,1.02,,,
724,-0.05,-0.56,0.26,-0.14,0.04,1.02,,,
725,0.05,-0.19,0.01,-0.13,0.03,1.02,,,
727,-0.12,0.23,0.28,-0.14,0.03,1.02,,,
728,-0.03,0.48,0.3,-0.13,0.03,1.02,,,
730,0.03,0.45,0.04,-0.13,0.04,1.03,,,
731,0.08,-0.05,-0.03,-0.13,0.03,1.02,,,
733,0,-0.33,0.04,-0.14,0.03,1.01,,,
734,0.07,-0.26,0.2,-0.13,0.03,1.02,,,
736,0.09,-0.18,0.04,-0.13,0.03,1.02,,,
737,0.2,0.43,0.27,-0.14,0.03,1.02,,,
739,0.05,0.67,0,-0.14,0.03,1.02,,,
740,0.1,0.43,-0.25,-0.13,0.03,1.02,,,
742,-0.2,-0.11,0.1,-0.14,0.03,1.02,,,
743,-0.01,-0.1,0.16,-0.13,0.04,1.02,,,
745,-0.17,0.42,0.19,-0.13,0.04,1.02,,,
746,0.01,0.87,-0.1,-0.13,0.03,1.02,,,
748,-0.03,0.62,0.12,-0.14,0.04,1.02,,,
749,-0.1,0.65,0.01,-0.14,0.03,1.02,,,
751,-0.01,0.41,0.18,-0.14,0.04,1.02,,,
752,-0.16,0.38,-0.12,-0.14,0.04,1.02,,,
754,0.17,0.51,-0.06,-0.14,0.04,1.02,,,
755,0.07,0,-0.17,-0.14,0.04,1.02,,,
757,-0.09,-0.33,0.18,-0.14,0.03,1.02,,,
758,0.17,-0.49,0.12,-0.14,0.03,1.02,,,
760,-0.32,-0.32,-0.07,-0.14,0.04,1.02,,,
761,0.01,0.32,0.09,-0.14,0.03,1.01,,,
763,0.18,0.16,-0.17,-0.14,0.03,1.02,,,
764,0.19,-0.71,-0.06,-0.14,0.03,1.02,,,
766,0.04,-0.87,0.11,-0.13,0.04,1.02,,,
767,0.24,-0.65,0.15,-0.13,0.03,1.02,,,
769,0.11,-0.56,0.14,-0.13,0.04,1.02,,,
770,0.07,-0.37,0.21,-0.14,0.04,1.02,,,
772,0.29,0.21,0.04,-0.13,0.04,1.02,,,
773,-0.12,0.72,-0.12,-0.13,0.03,1.03,,,
775,-0.04,0.95,-0.04,-0.14,0.04,1.02,,,
776,-0.05,0.96,0.01,-0.14,0.04,1.03,,,
778,0.02,0.49,-0.3,-0.14,0.03,1.03,,,
781,-0.13,0.36,0.07,-0.13,0.03,1.02,,,
783,-0.01,1.22,0.05,-0.13,0.03,1.02,,,
784,-0.23,1.64,0.12,-0.13,0.03,1.03,,,
786,-0.18,1.13,-0.13,-0.14,0.03,1.03,,,
787,0.04,0.11,-0.28,-0.14,0.03,1.02,,,
789,0.44,-0.2,-0.07,-0.14,0.04,1.02,,,
790,0.33,-0.44,-0.32,-0.13,0.04,1.01,,,
792,0.1,-0.49,0.08,-0.13,0.03,1.02,,,
793,0.06,-0.83,0.12,-0.14,0.03,1.03,,,
795,0.12,-0.99,0,-0.14,0.03,1.02,,,
796,-0.09,-0.54,0.01,-0.14,0.03,1.02,,,
798,0.14,-0.17,-0.05,-0.13,0.03,1.02,,,
799,-0.02,-0.21,0.03,-0.14,0.03,1.03,,,
801,0.05,-0.25,0.24,-0.14,0.03,1.03,,,
802,0.08,-0.14,-0.07,-0.13,0.04,1.02,,,
804,-0.08,0.31,0.13,-0.13,0.03,1.01,,,
805,-0.31,0.25,-0.04,-0.14,0.03,1.02,,,
807,-0.12,0.2,0.08,-0.14,0.03,1.02,,,
808,0.14,0.03,-0.06,-0.14,0.03,1.02,,,
810,0.25,0.04,0.19,-0.14,0.03,1.02,,,
811,-0.02,-0.13,-0.21,-0.14,0.03,1.02,,,
813,0.21,0.32,-0.25,-0.14,0.03,1.02,,,
814,-0.04,0.71,0.07,-0.13,0.03,1.02,,,
816,-0.18,0.65,-0.05,-0.14,0.04,1.02,,,
817,0.24,0.27,-0.16,-0.14,0.03,1.02,,,
819,-0.08,-0.63,-0.05,-0.14,0.03,1.03,,,
820,0.11,-2.07,0.2,-0.14,0.03,1.02,,,
822,0.19,-2.44,0.11,-0.13,0.04,1.03,,,
823,0.22,-3.5,0.24,-0.13,0.03,1.02,,,
825,0.52,-3.48,0.33,-0.13,0.03,1.01,,,
826,0.54,-1.95,0.25,-0.13,0.04,1.02,,,
828,0.34,-1.64,0.39,-0.13,0.04,1.02,,,
829,0.64,-3.25,0.75,-0.13,0.04,1.03,,,
831,0.67,-2.65,0.46,-0.14,0.04,1.02,,,
832,0.2,-2.25,0.55,-0.13,0.03,1.02,,,
834,0,-0.71,0.49,-0.13,0.03,1.02,,,
835,-0.32,0.9,0.24,-0.13,0.04,1.02,,,
837,-0.6,2.76,0.28,-0.13,0.03,1.02,,,
838,-0.56,3.37,-0.22,-0.13,0.03,1.02,,,
840,-0.36,3.17,-0.46,-0.13,0.03,1.02,,,
841,-0.41,2.45,-0.13,-0.13,0.04,1.02,,,
843,0.01,2.79,-0.64,-0.13,0.03,1.02,,,
844,-0.12,1.57,-0.7,-0.14,0.03,1.02,,,
846,-0.09,1.25,-0.35,-0.13,0.04,1.02,,,
847,-0.25,1.09,-0.36,-0.13,0.04,1.02,,,
849,-0.22,0.52,0.05,-0.13,0.04,1.03,,,
850,-0.16,-0.55,0.3,-0.14,0.03,1.03,,,
852,0.01,-1.03,-0.06,-0.13,0.03,1.02,,,
853,0.2,-1.09,0.24,-0.13,0.04,1.03,,,
855,-0.35,-1.28,0.09,-0.13,0.03,1.02,,,
856,0.36,-1.52,0.33,-0.14,0.03,1.02,,,
858,0.35,-1.31,0.26,-0.13,0.04,1.02,,,
859,0.29,-0.81,0.27,-0.13,0.03,1.02,,,
861,0.19,-0.11,0.3,-0.13,0.04,1.02,,,
862,0.19,-0.04,0.21,-0.13,0.04,1.02,,,
864,-0.08,0.77,-0.02,-0.13,0.03,1.02,,,
865,-0.09,0.92,-0.28,-0.13,0.03,1.03,,,
867,-0.38,-0.72,-0.58,-0.11,0.03,1.03,,,
868,-0.05,-0.49,-0.58,-0.14,0.04,1.02,,,
870,0.14,0.67,-0.46,-0.14,0.03,1.02,,,
871,-0.27,0.41,0.06,-0.15,0.05,1.02,,,
873,0.19,-1.53,-0.37,-0.14,0.03,1.01,,,
874,0.36,-15.79,-7.24,-0.07,0.14,1.03,,,
876,-0.06,-20.42,-43.2,-0.06,0.06,1.09,,,
878,2.78,-20.86,-3.03,-0.35,-0.13,1.03,,,
880,-2.5,-8.7,3.23,-0.09,0.04,1.02,,,
881,-2.72,-3.18,0.87,-0.14,0.08,1.21,,,
883,4.01,0.77,-13.16,-0.2,0.1,1.12,,,
884,17.13,53.44,-9.07,-0.17,0,0.99,,,
886,31.66,158.36,3.49,-0.15,-0.04,1.01,,,
887,0.46,252.13,12.56,0.05,0.04,1.25,,,
889,-4.38,252.13,3.18,-0.14,-0.03,0.92,,,
890,-10.96,252.13,1.1,-0.46,0.16,1.02,,,
892,-4.29,147.31,-14.09,-0.51,0.05,0.38,,,
893,-4.24,46.57,-2.45,-0.76,0.15,0.99,,,
895,0.3,13.53,-0.78,-0.45,0.03,0.81,,,
896,-7.14,2.64,1.88,-0.58,0.05,0.99,,,
898,-14.7,89.58,9.19,-0.49,-0.03,1.14,,,
899,6.06,164.72,3.66,-0.78,0.03,0.82,,,
901,40.24,66.22,-30.71,-0.86,-0.24,0.46,,,
902,8.53,16.54,-51.32,-0.95,-0.14,1.24,,,
904,-55.8,-64.3,-41.83,-0.79,-0.14,1.27,,,
905,-110.22,-143.34,-25.23,-0.44,-0.08,1.04,,,
907,-132.48,-221.46,12.62,-0.57,-0.03,0.9,,,
908,-79,-248.13,37.06,-0.33,-0.11,0.43,,,
910,-17.57,-124.74,27.62,-0.47,-0.19,0.52,,,
911,50.15,-204.93,-15.44,-0.69,-0.15,0.98,,,
913,130.01,-223.81,-35.77,-0.6,0.01,0.61,,,
914,115.4,-248.13,-84.16,-0.53,-0.12,1.18,,,
916,119.58,-233.36,-111.18,-0.12,0.16,0.96,,,
917,146.12,-226.33,-81.01,0.31,0.26,0.9,,,
919,150.3,-163.46,-46.74,0.55,0.3,1.04,,,
920,98.37,-96.47,-7.33,0.87,0.29,0.71,,,
922,15.75,-85.84,34.07,0.5,0.45,1.32,,,
923,-20.53,-95.1,64.03,0.55,0.59,1.04,,,
925,-39.86,-70.78,68.07,0.44,0.34,0.73,,,
926,-28.92,-26.94,35.54,0.08,0,0.84,,,
928,-0.51,174.15,21.96,0.27,0.01,0.02,,,
929,54.23,122.99,23.6,-0.19,-0.17,0.34,,,
931,80.49,81.67,43.02,0.01,-0.04,0.72,,,
932,78.23,78.51,25.1,-0.02,0.17,1.09,,,
934,64.72,106.35,24.03,0.09,0.25,1.18,,,
935,32.39,97.88,7.09,-0.14,0.21,1.33,,,
937,-20.9,67.98,-20.74,-0.09,0.19,1.38,,,
938,-63.59,51.7,-28.67,-0.02,0.13,1.19,,,
940,-87.39,42.29,-36.28,-0.08,0.19,1.03,,,
941,-110.56,33.08,-38.55,-0.03,0.22,1.04,,,
943,-124.11,-10.9,-22.27,-0.21,0.07,1.06,,,
944,-123.42,-27.36,-19.45,-0.31,0.08,0.93,,,
946,-104.22,-29.2,-20.92,-0.12,0.06,0.85,,,
947,-73.49,16.46,-29.83,-0.04,0.07,0.92,,,
949,-43.43,33.09,-36.97,-0.04,-0.14,1.06,,,
950,-30.41,38.61,-25.04,0.02,-0.09,1.06,,,
952,-9.88,9.72,-9.26,0.03,0.01,0.95,,,
953,20.46,-12.28,3.27,0.11,0,0.86,,,
955,48.17,-10.04,25.1,0.17,0,0.99,,,
956,51.74,48.19,36.49,0,-0.02,1.08,,,
958,43.62,36.42,48.08,-0.14,0.06,1.31,,,
959,-13.16,136.68,-11.76,-0.15,0.23,1.68,,,
961,-18.12,-33.25,-12.3,0.12,-0.06,0.74,,,
962,-1.08,-12.56,-14.69,0.27,0.12,0.67,,,
964,11.96,-28.3,-4.31,0.11,0.05,0.97,,,
965,16.86,-10.49,12.52,0.29,0.02,0.9,,,
967,12.77,18.31,22.69,0.13,0.01,0.97,,,
968,3.27,27.98,27.89,-0.01,0.01,1.09,,,
970,12.84,24.53,21.26,-0.05,0.02,0.92,,,
971,30.59,30.34,15.88,-0.03,0.03,0.86,,,
973,40.74,48.9,17.32,-0.11,0,1.01,,,
975,30.78,90.65,12.44,-0.21,0.04,1.12,,,
977,6.66,78.28,6.91,-0.32,0.02,1.21,,,
978,-14.5,42.08,0.25,-0.35,0.02,1.15,,,
980,-25.74,27.48,-11.53,-0.39,0.03,1.05,,,
981,-30.96,3.73,-27.04,-0.29,0.08,0.83,,,
983,-40.33,10.07,-44.51,-0.4,-0.02,0.99,,,
984,-44.07,8.87,-46.35,-0.32,0.02,1.02,,,
986,-42.46,-0.55,-37.28,-0.29,0.03,0.99,,,
987,-23.41,-36.87,-22.62,-0.17,0.05,0.89,,,
989,4.85,-74.46,7.39,-0.08,-0.04,0.77,,,
990,32.2,-124.1,39.84,-0.18,0.18,0.87,,,
992,46.26,-103.81,19.96,-0.34,-0.04,1.02,,,
993,10.56,-28.35,-32.75,-0.31,-0.11,1.19,,,
995,-6.52,19.77,-42.01,-0.12,0.06,1.06,,,
996,-3.76,22.84,-31.69,0.07,0.1,1.06,,,
998,18.32,-18.85,-15.58,0.07,0.12,1,,,
999,43.75,-68.62,-7.67,0.11,0.11,1.08,,,
1001,44.91,-84.58,-4.71,0.23,0.13,1.18,,,
1002,36.02,-61.99,8.5,0.48,0.17,1.23,,,
1004,22.98,-29.02,31.09,0.56,0.24,1.26,,,
1005,14.33,-14.95,53.14,0.46,0.23,1.18,,,
1007,17.84,-15.1,59.8,0.33,0.16,1.1,,,
1008,17.27,-12.1,52.28,0.24,0.11,1.09,,,
1010,21.1,-6.89,34.95,0.17,0.07,1,,,
1011,26.14,14.91,16.17,0.23,0.07,0.95,,,
1013,28.67,42.47,0.92,0.3,0.04,0.93,,,
1014,24.07,69.35,-7.41,0.28,0.06,0.97,,,
1016,9.45,77.37,-16.97,0.13,0.14,0.96,,,
1017,-5.66,69.32,-26.94,0.05,0.14,1.01,,,
1019,-18.86,40.71,-31.57,-0.02,0.12,1.02,,,
1020,-29.8,14.74,-39.51,-0.12,0.15,0.96,,,
1022,-39.85,17.42,-37.65,-0.15,0.13,0.92,,,
1023,-42.76,-1.49,-17.69,-0.13,0.06,0.89,,,
1025,-34.38,-22.39,10.84,-0.13,0.04,0.8,,,
1026,-17.54,-4.92,30.58,-0.08,0.04,0.66,,,
1028,6.14,53.21,48.25,-0.03,-0.03,0.71,,,
1029,28.4,97.95,54.33,-0.22,-0.03,0.87,,,
1031,48.21,67.93,54.17,-0.41,-0.03,0.96,,,
1032,50.13,-8.16,63.67,-0.22,-0.02,1.13,,,
1034,25.61,-14.19,73.39,-0.21,0.07,1.18,,,
1035,-16.59,-2.1,68.65,-0.32,0.11,1.2,,,
1037,-40.48,16.06,57.99,-0.33,0.03,0.93,,,
1038,-36.6,24.75,43.91,-0.35,-0.03,0.71,,,
1040,-16.44,62,22.37,-0.36,0.03,0.5,,,
1041,4.57,134.8,-4.12,-0.53,0.05,0.72,,,
1043,91.73,81.79,11.75,-0.28,-0.17,0.71,,,
1044,60.17,134.13,13.39,-0.92,0.04,1.64,,,
1046,21.83,40.38,-27.25,-0.85,0.09,1.52,,,
1047,7.46,9.9,-43.02,-0.6,0.15,1.11,,,
1049,14.29,15.96,-44.19,-0.36,0.13,0.82,,,
1050,19.69,84.18,-38.43,-0.07,0.17,0.77,,,
1052,25.01,133.21,-15.1,0,0.25,0.83,,,
1053,34.78,160.05,23.33,-0.1,0.3,0.78,,,
1055,-33.38,73.45,-20.51,0.14,0.06,0.61,,,
1056,-70.83,69.66,-55.93,-0.58,0.22,0.98,,,
1058,-11.95,-81.2,7.77,0.99,-0.05,-0.01,,,
1059,-18.89,-108.24,19.23,-0.65,0.01,1.51,,,
1061,-6.05,-64.54,48.39,-0.41,0.11,0.81,,,
1062,-14.3,-46.74,27.59,-0.49,0.02,0.89,,,
1064,-11.88,-57.15,24.48,-0.46,0.1,0.92,,,
1065,-9.1,-72.31,17.04,-0.42,0.11,0.93,,,
1067,-7.04,-85.78,11.65,-0.38,0.1,0.97,,,
1068,-4.93,-85.07,12.53,-0.23,0.09,0.98,,,
1070,-4.58,-50.09,15.55,-0.14,0.1,1.09,,,
1072,-2.41,-21.76,23.22,-0.09,0.09,0.95,,,
1074,-5.49,-35.78,31.97,-0.17,0.12,1.08,,,
1075,-7.73,-65.84,44.59,-0.04,0.08,0.92,,,
1077,-4.83,-119,59.4,-0.02,0.11,0.87,,,
1078,-2.86,-220.67,56.33,-0.42,0.14,1.15,,,
1080,16.94,-21.5,9.48,0.03,-0.1,-0.33,,,
1081,-3.71,-24.72,-0.12,-0.32,0.08,0.95,,,
1083,4.11,5.93,0.12,-0.09,0.12,0.98,,,
1084,0.22,-4.71,0.13,-0.09,0.08,0.96,,,
1086,-1.18,-4.39,0.07,-0.11,0.1,1.03,,,
1087,0.56,0.93,-0.02,-0.11,0.1,1.01,,,
1089,0.79,-0.9,0.2,-0.12,0.08,1.05,,,
1090,0.72,0.23,0.26,-0.1,0.09,1.04,,,
1092,0.04,1.03,-0.13,-0.1,0.09,1.03,,,
1093,-0.25,1.2,-0.13,-0.11,0.09,1.02,,,
1095,-0.08,0.06,-0.32,-0.12,0.09,1,,,
1096,-0.38,-0.8,0.04,-0.1,0.09,1.02,,,
1098,-2.67,-3.62,-0.28,-0.11,0.1,1.02,,,
1099,2.23,9.16,0.3,-0.06,0.07,0.93,,,
1101,-5.73,-12.68,-0.41,-0.21,0.1,1.05,,,
1102,-2.05,-2.62,-0.48,-0.11,0.11,1.12,,,
1104,-2.05,0.13,-0.13,-0.11,0.09,1.06,,,
1105,-2.33,0.45,1.31,-0.11,0.08,1.01,,,
1107,-3.15,-0.29,2.68,-0.09,0.07,0.96,,,
1108,-7.64,-2,2.91,-0.11,0.08,1.01,,,
1110,-5.49,0.16,-10.41,-0.25,0.04,1.03,,,
1111,-10.85,-9.33,-3.49,-0.04,0.14,1.11,,,
1113,-12.64,-4.99,6.23,-0.13,0.08,1.11,,,
1114,-12.13,-4.07,8.44,0.02,0.07,0.85,,,
1116,-8.56,-3.03,9.59,-0.05,0.06,1.02,,,
1117,-4.72,-3.13,7.11,-0.02,0.04,1.04,,,
1119,-2.47,-7.1,4.07,0,0.1,0.9,,,
1120,1.64,1.89,-53.55,-0.66,-0.14,0.84,,,
1122,0.14,1.85,-115.04,-0.33,0.04,1.06,,,
1123,1.67,-2.34,-129.79,-0.26,0.18,1.05,,,
1125,-1.9,-7.43,-115.52,0.07,0.14,0.88,,,
1126,-6.83,-4,-101.77,-0.02,0.06,1,,,
1128,-2.93,-6.52,-86.54,-0.03,0.06,1.03,,,
1129,1.32,-2.77,-55.22,0.08,0.06,1.09,,,
1131,2.55,2.76,-18.14,0.07,0.08,1.08,,,
1132,-2.08,-1.16,6.11,-0.05,0.08,1.07,,,
1134,-1.95,1.11,5.91,-0.14,0.06,1.04,,,
1135,-2.8,4.29,4.4,-0.11,0.06,0.97,,,
1137,-5.14,2.77,3.68,-0.14,0.05,1,,,
1138,-5.63,-1.16,3.69,-0.14,0.01,0.98,,,
1140,-6.91,-4.16,4.13,-0.11,0.02,0.98,,,
1141,-10.66,-16.61,14.2,0.55,-0.21,1.12,,,
1143,-12.94,-0.28,26.49,0.12,0.08,1.22,,,
1144,-10.61,5.09,22.53,-0.33,0.31,1.04,,,
1146,-13.47,1.2,19.18,-0.32,0.17,1.04,,,
1147,-11.97,-1.55,1,-0.28,0.05,1.06,,,
1149,-9.15,0.92,-5.3,-0.1,0.08,1.07,,,
1150,-8.53,3.95,-5.95,-0.1,0.06,1.02,,,
1152,-9.78,5.5,-6.57,-0.14,0.09,1.07,,,
1153,-8.42,2.29,-3.34,-0.11,0.03,1.07,,,
1155,-8.77,-0.57,-1.4,-0.09,-0.02,0.89,,,
1156,-7.65,-4.08,-3.19,-0.21,-0.06,0.97,,,
1158,-5.66,-2.82,-11.85,-0.22,-0.05,0.86,,,
1159,-5.24,-8.98,-12.66,-0.12,-0.01,0.95,,,
1161,-5.99,-10.57,-13.97,-0.1,0,0.99,,,
1162,-5.89,-5.87,-13.61,-0.05,0,1.04,,,
1164,-5.18,-4.21,-12.93,-0.08,0.02,1.12,,,
1165,-1.97,0.4,-10.69,-0.03,0,1,,,
1167,1.56,4.27,-6.78,-0.01,-0.08,1,,,
1170,7.78,2.85,-3.32,-0.01,-0.09,1,,,
1172,12.31,3.05,-1.83,0,-0.09,1.01,,,
1173,14.03,4.37,-1.45,-0.03,-0.03,1.03,,,
1175,14.4,4.55,-0.84,-0.05,-0.02,0.98,,,
1176,9.83,0.25,-0.21,-0.11,-0.02,1.02,,,
1178,7.39,1.56,-0.55,-0.08,-0.01,1.06,,,
1179,5.51,2.87,-1.83,-0.12,0.01,1.06,,,
1181,5.56,3.64,-1.83,-0.11,-0.01,1.03,,,
1182,2.06,4.46,-2.58,-0.12,0.04,1.06,,,
1184,0.12,-0.73,-20.28,-0.22,0.03,1.09,,,
1185,-0.21,-1.95,-17.74,-0.04,0.04,0.98,,,
1187,-2.39,-4.33,-1.22,-0.02,0.05,1,,,
1188,-3.96,-5.91,0.55,-0.09,0.05,1.01,,,
1190,-3.89,-8.81,-0.1,-0.12,0.04,1.07,,,
1191,-1.84,-5.27,0.23,-0.1,0.01,1.05,,,
1193,-2.06,2.3,1.52,-0.11,0.01,1.04,,,
1194,-0.92,3.98,1.47,-0.1,0.02,1.05,,,
1196,-1.59,5.07,0.95,-0.12,-0.02,1.04,,,
1197,-1.06,5.03,0.92,-0.11,-0.02,1,,,
1199,1.48,4.63,0.62,-0.11,-0.03,0.99,,,
1200,3.36,0.93,0.67,-0.1,-0.03,0.97,,,
1202,4.29,1.11,0.57,-0.09,-0.01,0.97,,,
1203,3.59,1.03,0.37,-0.09,0.01,1.02,,,
1205,3.75,-0.31,-0.3,-0.1,0.02,1.02,,,
1206,4.48,0.2,-1.04,-0.11,0.03,1.04,,,
1208,4.6,0.13,-2.23,-0.11,0.05,1.03,,,
1209,4.29,-0.28,-3.68,-0.1,0.06,1.04,,,
1211,2.2,0.62,-4.04,-0.08,0.03,1.02,,,
1212,1.56,0,-3.03,-0.08,0.02,1.04,,,
1214,2.38,-0.55,-1.45,-0.06,0.03,1.01,,,
1215,2.07,-1.49,-1.23,-0.07,0.05,1.01,,,
1217,0.32,-1.2,-0.85,-0.07,0.04,1.04,,,
1218,-1.12,-2.13,-0.82,-0.07,0.04,1.04,,,
1220,-2.35,-1.51,-0.8,-0.06,0.04,1.04,,,
1221,-1.88,-1.19,-0.01,-0.05,0.01,1,,,
1223,-1.01,-1.16,0.2,-0.06,0.02,1.03,,,
1224,-0.33,-1.23,-0.09,-0.07,0.01,1.03,,,
1226,-0.8,0.35,0.42,-0.08,0.01,1.05,,,
1227,-0.61,0.12,0.79,-0.09,0.01,1.04,,,
1229,-0.41,1.43,0.64,-0.1,0.02,1.04,,,
1230,-0.01,0.71,0.72,-0.11,0.02,1.02,,,
1232,0.14,0.32,0.3,-0.11,0.01,1.02,,,
1233,0.38,-0.45,0.58,-0.11,0.01,1.01,,,
1235,0.82,1.47,0.3,-0.09,0.01,1.01,,,
1236,1.23,0.58,0.2,-0.1,0.02,1,,,
1238,1.45,1.11,0.3,-0.1,0.02,1.02,,,
1239,1.92,0.72,-0.25,-0.09,0.03,1.04,,,
1241,1.77,0.55,-0.27,-0.08,0.02,1.03,,,
1242,1.4,1.52,-0.51,-0.06,0.02,0.99,,,
1244,-6.61,4.58,-6.9,-0.05,0.05,1.01,,,
1245,-0.51,-4.25,-2.12,-0.01,0.06,1.08,,,
1247,-1.84,0.93,-1.16,-0.06,0.05,1.13,,,
1248,0.72,2.33,-0.4,-0.06,0,1.04,,,
1250,-0.44,0.96,-0.51,-0.06,0.02,1.02,,,
1251,0.94,2.35,-0.16,-0.07,0.02,1.06,,,
1253,1.36,2.4,0.01,-0.09,0.01,1.05,,,
1254,1.36,2.03,0.6,-0.09,0,0.92,,,
1256,-0.62,2.21,0.69,-0.11,0.02,0.99,,,
1257,-0.34,1.99,0.75,-0.11,0.02,1,,,
1259,1.04,1.47,0.81,-0.11,0.02,0.99,,,
1260,2.05,0.86,0.73,-0.11,0.03,1,,,
1262,2.68,1.16,0.47,-0.12,0.05,1.03,,,
1263,1.77,0.35,0.68,-0.11,0.05,1.05,,,
1265,-0.52,-0.68,0.4,-0.1,0.04,1.03,,,
1267,-3.53,-2.66,1.31,-0.08,0.03,1.01,,,
1269,-4.33,-4.68,2.05,-0.06,0.02,1.01,,,
1270,-4.6,-7.62,2.53,-0.12,0.03,1.04,,,
1272,-3.41,-4.24,2.55,-0.06,0.03,1.09,,,
1273,-3.48,-0.5,2.32,-0.05,0.04,1.1,,,
1275,-4.05,1.07,2.26,-0.06,0.01,1.05,,,
1276,-3.99,4.02,2.68,-0.07,0.02,1.08,,,
1278,-3.09,8.43,2.33,-0.09,0.05,1.07,,,
1279,-2.43,7.33,0.78,-0.09,0.07,1.01,,,
1281,-3.23,6.73,0.57,-0.08,0.04,1.01,,,
1282,-2.64,8.24,0.81,-0.1,0.04,1.04,,,
1284,-2.86,5.55,1.92,-0.12,0.01,1.04,,,
1285,-2.66,2.54,2.62,-0.11,0,1.02,,,
1287,0.24,6.74,3.23,-0.12,0.03,1.08,,,
1288,3.51,14.5,1.75,-0.13,0.06,1.12,,,
1290,7.41,15.05,1.07,-0.14,0.01,1.1,,,
1291,10.16,15.61,0.76,-0.14,0.01,1.05,,,
1293,12.41,16.61,2.06,-0.11,-0.02,1.05,,,
1294,14.07,16.64,2.89,-0.14,-0.03,1.03,,,
1296,14.4,14.38,4.89,-0.17,-0.05,1.05,,,
1297,13.47,13,6.47,-0.13,-0.02,0.97,,,
1299,14,11.73,6.92,-0.13,0.01,0.95,,,
1300,10.79,10.98,6.7,-0.13,0.01,0.95,,,
1302,9.42,8.27,6.67,-0.16,0.02,1,,,
1303,9.76,11.32,7.13,-0.14,0.04,1.05,,,
1305,8.64,13.93,6.96,-0.12,0.02,1.05,,,
1306,4.04,16.33,8.06,-0.13,0.03,1.12,,,
1308,-2.69,18.93,9.88,-0.13,0.04,1.09,,,
1309,-8.62,25.18,13.01,-0.13,-0.02,1.15,,,
1311,-9.76,18.45,13.77,-0.15,-0.04,0.97,,,
1312,-17.33,1.8,3.51,-0.29,0.08,0.93,,,
1314,-12.87,0.78,-6.96,-0.16,0.01,1.1,,,
1315,-6.89,6.71,-7.96,-0.04,-0.03,1.01,,,
1317,-7.49,9.82,-5.61,-0.1,0.02,1.05,,,
1318,-11.86,6.49,-3.35,-0.15,0.05,1.05,,,
1320,-17.17,0.8,-1.58,-0.14,0,0.99,,,
1321,-18.02,0.84,0.26,-0.14,-0.01,0.98,,,
1323,-13.75,0.77,1.75,-0.14,-0.05,1.02,,,
1324,-4.31,-5.42,3.67,-0.17,-0.08,1.03,,,
1326,7.44,-2.72,5.59,-0.14,-0.09,1.08,,,
1327,15.56,-1.25,7.25,-0.14,-0.06,1.07,,,
1329,18.32,-3.49,8.62,-0.13,-0.04,1.07,,,
1330,16.48,-2.1,10.46,-0.13,-0.04,1.08,,,
1332,14.76,0.03,11.45,-0.12,-0.04,1.06,,,
1333,15.49,10.22,12.36,-0.1,-0.05,1.11,,,
1335,17.93,-3.81,10.52,-0.12,-0.03,1,,,
1336,18.44,-7.84,9.12,-0.12,-0.03,1.03,,,
1338,16.75,-3.56,6.28,-0.13,-0.03,1.02,,,
1339,11.53,-2,4.78,-0.14,-0.03,1.04,,,
1341,5.39,-4.31,2.3,-0.15,0,1.03,,,
1342,-0.83,-2.46,-0.87,-0.16,0.02,1.02,,,
1344,-6.54,-3.11,-3.62,-0.2,0.02,0.98,,,
1345,-9.55,-10.13,-2.58,-0.15,-0.02,0.96,,,
1347,-11.66,-11.88,17.05,0.02,-0.04,1,,,
1348,-12.15,-12.2,24.1,-0.21,-0.03,0.94,,,
1350,-14.28,-12.76,19.08,-0.33,-0.01,0.91,,,
1351,-12.91,-13.4,6.21,-0.36,-0.06,0.92,,,
1353,-11.49,-16.84,3.87,-0.18,-0.14,1.02,,,
1354,-12.18,-14.32,15.47,-0.08,-0.13,1,,,
1356,-15.44,-14.62,18.84,-0.24,-0.11,0.95,,,
1357,-16.96,-15.65,14.59,-0.34,-0.13,0.92,,,
1359,-13.6,-14.05,7.37,-0.27,-0.14,0.94,,,
1360,-9.91,-15.89,14.46,-0.02,-0.16,0.97,,,
1362,-7.81,-17.35,21.39,-0.12,-0.13,0.96,,,
1364,-4.79,-15.94,17.97,-0.23,-0.13,0.96,,,
1366,-0.98,-16.41,8.14,-0.22,-0.14,1.02,,,
1367,2.91,-8.97,3.81,-0.19,-0.1,1.09,,,
1369,4.82,-9.23,3.01,-0.12,-0.05,1.1,,,
1370,5.64,-6.76,2.62,-0.08,0.01,1.17,,,
1372,7.76,-0.36,5.38,-0.01,0.04,1.22,,,
1373,11.34,-3.2,10.96,-0.02,0.04,1.11,,,
1375,12.94,-3.1,11.62,-0.17,0.14,1.27,,,
1376,14.3,1.19,8.66,-0.13,0.17,1.14,,,
1378,10.76,4.61,4.75,-0.07,0.26,1.2,,,
1379,6.14,9.48,1.74,-0.05,0.25,1.19,,,
1381,0.32,7.46,0.48,-0.02,0.26,1.16,,,
1382,-3.3,9.22,-3.09,0.03,0.26,1.22,,,
1384,-7.12,12.32,2.21,0.01,0.31,1.23,,,
1385,-11.32,12.12,2.4,-0.17,0.31,1.24,,,
1387,-8.85,17.27,-4.5,-0.25,0.27,1.24,,,
1388,-9.26,4.48,-5.5,-0.15,0.26,1.29,,,
1390,-5.8,1.36,-0.69,-0.12,0.24,1.25,,,
1391,1.04,7.01,-2.41,-0.22,0.25,1.35,,,
1393,9.31,6.18,-4.12,-0.18,0.23,1.31,,,
1394,16.58,-2.68,-5.99,-0.18,0.24,1.34,,,
1396,24.48,-2.62,-7.89,-0.19,0.22,1.34,,,
1397,31.88,0.13,-10.25,-0.19,0.21,1.31,,,
1399,37.17,1.79,-13,-0.2,0.23,1.3,,,
1400,39.66,1.8,-16.08,-0.21,0.25,1.31,,,
1402,43.34,6.64,-16.35,-0.23,0.27,1.3,,,
1403,44.32,12.29,-18.14,-0.21,0.27,1.22,,,
1405,42.58,8.01,-21.19,-0.16,0.27,1.07,,,
1406,37.62,10.12,-23.58,-0.17,0.21,1.06,,,
1408,33.36,14.6,-27.35,-0.18,0.21,1,,,
1409,29.65,19.42,-31.32,-0.14,0.2,0.95,,,
1411,24.46,18.45,-34.66,-0.12,0.2,0.86,,,
1412,18.03,12.34,-35.67,-0.07,0.19,0.76,,,
1414,14.28,7.71,-37.62,-0.13,0.19,0.78,,,
1415,11.86,5.19,-38.39,-0.16,0.19,0.82,,,
1417,12.45,6.75,-38.33,-0.08,0.13,0.74,,,
1418,11.93,-11.65,-38.45,-0.17,0.13,0.73,,,
1420,10.02,-15.04,-39.35,-0.18,0.1,0.72,,,
1421,4.2,-14.55,-36.57,-0.11,0.07,0.63,,,
1423,-0.15,-7.83,-36.1,-0.16,0.11,0.74,,,
1424,-0.08,-5.51,-36.57,-0.15,0.12,0.74,,,
1426,2.58,-17.36,-35.85,-0.14,0.1,0.76,,,
1427,5.78,-20.16,-36.34,-0.18,0.09,0.82,,,
1429,8.78,-19.52,-37.45,-0.14,0.08,0.76,,,
1430,6.86,-23.85,-37.99,-0.12,0.09,0.77,,,
1432,7.24,-19.74,-41.11,-0.19,0.15,0.88,,,
1433,8.04,-15.24,-45.07,-0.21,0.13,0.93,,,
1435,8.77,-13.91,-49.74,-0.17,0.1,0.93,,,
1436,4.54,-14.65,-52.86,-0.14,0.07,0.88,,,
1438,-0.34,-6.98,-54.25,-0.15,0.09,0.85,,,
1439,-5.83,3.01,-57.89,-0.16,0.13,0.91,,,
1441,-9.87,0.38,-61.23,-0.18,0.13,0.93,,,
1442,-10.34,3.58,-63.87,-0.17,0.09,0.89,,,
1444,-12.55,4.02,-62.24,-0.15,0.04,0.89,,,
1445,-15.22,6.45,-58.73,-0.15,0.03,0.92,,,
1447,-15.87,-4.57,-54.14,-0.13,0.04,0.9,,,
1448,-11.38,-0.88,-49.03,-0.16,0.05,0.98,,,
1450,-4.44,-2.49,-44.49,-0.15,0.07,0.96,,,
1451,-1.73,0.1,-40.64,-0.1,0.07,0.92,,,
1453,0.53,-0.11,-37.09,-0.13,0.08,0.97,,,
1454,3.98,0.32,-35.81,-0.09,0.08,0.89,,,
1456,5.54,-4.99,-35.7,-0.14,0.1,0.98,,,
1457,4.91,-0.33,-35.07,-0.12,0.05,0.88,,,
1459,4.11,-4.22,-33.51,-0.11,0.05,0.83,,,
1461,4.25,-4.64,-32.01,-0.15,0.02,0.89,,,
1463,4.33,-8.21,-28.93,-0.22,0.05,0.96,,,
1464,3.27,-6.1,-27.98,-0.2,0.07,0.91,,,
1466,2.29,-12.1,-26.77,-0.21,0.01,0.83,,,
1467,-1.62,-12.33,-24.87,-0.25,0.09,0.95,,,
1469,-4.09,-11.69,-23.46,-0.29,0.15,0.99,,,
1470,-3.53,-11.93,-20.91,-0.17,0.03,0.9,,,
1472,-2.26,-9.07,-19.42,-0.14,0.02,0.99,,,
1473,-2.1,-6.91,-20.15,-0.18,0.09,1.02,,,
1475,-0.81,-6.76,-22.21,-0.18,0.07,1.05,,,
1476,-1.81,-6.13,-23.55,-0.21,0.02,1.07,,,
1478,-3.83,-3.68,-24.38,-0.24,0.02,1.12,,,
1479,-4.92,2.73,-24.25,-0.26,0.13,1.07,,,
1481,-8.04,3.52,-23.14,-0.26,0.11,1.12,,,
1482,-7.47,0.81,-21.53,-0.26,0.04,1.1,,,
1484,-6.23,-0.04,-18.86,-0.23,-0.02,1.08,,,
1485,-6.26,-1.71,-15.64,-0.23,-0.06,1.01,,,
1487,-7.12,-3.51,-12.91,-0.22,-0.03,1.04,,,
1488,-7.47,-4.31,-11.87,-0.23,0.02,1.07,,,
1490,-5.8,-5.25,-11.56,-0.22,0.04,1.08,,,
1491,-4.56,-6.84,-11.12,-0.21,0.02,1.04,,,
1493,-3.18,-8.94,-10.74,-0.2,0.03,0.99,,,
1494,-1.83,-9.67,-10.54,-0.18,0.01,0.97,,,
1496,-0.6,-10.99,-10.87,-0.19,0.01,0.97,,,
1497,-0.98,-12.55,-11.37,-0.18,-0.01,0.95,,,
1499,-2.92,-13.92,-10.19,-0.15,-0.03,0.88,,,
1500,-5.89,-14.15,-10.17,-0.14,-0.05,0.85,,,
1502,-6.42,-13.56,-9.96,-0.13,-0.06,0.9,,,
1503,-3.86,-13.68,-8.76,-0.12,-0.05,0.95,,,
1505,1.64,-13.6,-5.38,-0.13,-0.09,0.95,,,
1506,6.39,-13.19,-1.5,-0.11,-0.12,0.96,,,
1508,10.64,-10.57,4.5,-0.1,-0.11,1,,,
1509,14.72,-7.46,12.84,-0.13,-0.1,1.02,,,
1511,18.61,-8.44,22.37,-0.09,-0.08,1.06,,,
1512,19.69,-6.03,30.71,-0.07,-0.06,1.04,,,
1514,17.27,-1.91,39.89,-0.06,-0.05,1.07,,,
1515,15.38,4.96,51.04,-0.01,-0.01,1.06,,,
1517,11.1,11.58,57.8,0.01,0.18,1.14,,,
1518,9.28,15.53,58.89,0.01,0.24,1.19,,,
1520,4.49,20.27,58.55,0.03,0.25,1.22,,,
1521,-1.56,24.96,57.02,0.07,0.25,1.18,,,
1523,-5.22,28.84,55.04,0.08,0.21,1.13,,,
1524,-7.36,28.8,52.86,0.07,0.22,1.16,,,
1526,-5.38,26.49,49.98,0.07,0.22,1.17,,,
1527,-1.89,23.27,47.76,0.06,0.2,1.12,,,
1529,0.53,20.32,45.27,0.06,0.23,1.09,,,
1530,1.24,15.95,42.42,0.03,0.22,1.06,,,
1532,1.95,9.25,42.01,0.04,0.15,1.02,,,
1533,-0.25,6.35,39.49,0.04,0.16,0.93,,,
1535,-2.69,-0.32,40.45,0.04,0.14,1.02,,,
1536,-2.87,-2.75,41.24,0.04,0.14,0.95,,,
1538,-3.04,-6.87,40.52,0.01,0.13,1.02,,,
1539,-1.31,-8.62,40.35,0,0.11,1,,,
1541,-1.89,-8.29,39.92,-0.01,0.05,1.03,,,
1542,-2.31,-8.96,40.65,-0.01,0.01,1.01,,,
1544,-4.92,-7.95,40.14,0.03,0.01,1.03,,,
1545,-4.92,-6.98,39.47,0.03,0.06,1.03,,,
1547,-6.63,-6.72,39.1,0,0.08,1.05,,,
1548,-9.41,-8.35,37.55,-0.03,0.08,1.04,,,
1550,-13.81,-10.42,36.18,-0.04,0.05,1.01,,,
1551,-15.05,-11.36,35.13,-0.03,0.05,0.97,,,
1553,-14.07,-11.33,33.45,-0.02,0.04,0.93,,,
1554,-10.67,-13.04,31.5,0,0.05,0.94,,,
1556,-6.59,-12.15,28.86,0.01,0.08,0.97,,,
1559,1.08,-11.93,25.77,0,0.06,0.94,,,
1561,-4.75,-15.33,23.51,0,0.02,0.96,,,
1562,-8.76,-13.34,23.52,-0.04,0.03,1.05,,,
1564,-10.89,-7.68,23.7,-0.06,-0.01,1.05,,,
1565,-13.49,-2.67,24.65,-0.07,-0.05,0.98,,,
1567,-11.82,-1.47,28.4,-0.08,-0.08,1.04,,,
1568,-8.25,-2.1,31.52,-0.07,-0.06,1.04,,,
1570,-3.87,2.51,33.14,-0.04,-0.05,1.02,,,
1571,-2.81,6.55,33.52,-0.02,-0.06,1.04,,,
1573,-3.45,9.54,33.62,-0.01,-0.09,1.01,,,
1574,-6.27,13.09,32.4,0.01,-0.1,1,,,
1576,-9.29,17.3,32.13,0.02,-0.12,1,,,
1577,-11.13,19.07,30.65,0.03,-0.09,1.01,,,
1579,-10.03,22.22,29.07,0.04,-0.07,1.03,,,
1580,-6.83,22.47,27.45,0.01,-0.08,1.05,,,
1582,-5.16,20.7,26.65,-0.03,-0.06,1.11,,,
1583,-4.95,25.64,23.93,-0.04,-0.03,1.1,,,
1585,-6.8,46.63,20.56,0,-0.02,1.07,,,
1586,-10.15,44.09,17.4,-0.17,0.02,1.23,,,
1588,-11.64,28.71,14.53,-0.02,-0.06,1.09,,,
1589,-13.54,15,12.94,-0.09,0,1.09,,,
1591,-15.76,12.03,11.86,-0.09,0.03,1.09,,,
1592,-16.51,10.96,11.46,-0.09,0.04,1.11,,,
1594,-16.55,8.88,8.88,-0.11,0.04,1.14,,,
1595,-15.8,8.29,6.42,-0.11,0.07,1.14,,,
1597,-15,5.07,5.94,-0.12,0.09,1.12,,,
1598,-13.84,2.48,4.33,-0.14,0.11,1.14,,,
1600,-11.54,0.31,3.84,-0.15,0.11,1.11,,,
1601,-9.28,-1.85,5.17,-0.12,0.11,1.07,,,
1603,-7.34,-4.02,6.65,-0.12,0.06,0.99,,,
1604,-3.96,-3.54,6.23,-0.11,0.01,0.98,,,
1606,-0.82,-7.02,5.71,-0.11,0.03,0.93,,,
1607,0.36,-7.36,5.64,-0.12,0.05,0.97,,,
1609,1.72,-5.35,4.58,-0.12,0.06,0.97,,,
1610,1.29,-4.79,2.97,-0.11,0.07,0.94,,,
1612,0.01,-2.14,2.44,-0.09,0.04,0.93,,,
1613,0.7,0.9,1.14,-0.1,0.02,0.86,,,
1615,9.79,-6.7,6.91,-0.11,-0.04,0.74,,,
1616,14.94,-3.19,1.65,-0.09,0.04,0.75,,,
1618,16.36,1.07,2.01,-0.04,-0.08,0.87,,,
1619,16.44,-5.93,4.78,-0.04,-0.04,0.72,,,
1621,14.38,-1.75,6.17,-0.02,-0.03,0.84,,,
1622,10.27,-2.81,8.5,0.02,-0.05,0.81,,,
1624,6.46,-9.05,10.47,0.01,-0.05,0.9,,,
1625,5.5,-10.47,11.23,0.01,-0.06,0.95,,,
1627,7.78,-13.78,12.26,0.01,-0.06,0.98,,,
1628,8.42,-16.49,12.62,-0.02,-0.09,1.03,,,
1630,5.62,-14.96,14.93,-0.03,-0.1,1.06,,,
1631,1.62,-10.23,16.98,-0.03,-0.08,1.12,,,
1633,-2.29,-9.43,19.2,-0.05,-0.07,1.18,,,
1634,-5.15,-2.6,21.97,-0.06,-0.08,1.22,,,
1636,-9.18,4.09,24.69,-0.01,-0.02,1.38,,,
1637,-9.67,10.19,26.39,-0.05,-0.03,1.35,,,
1639,-10.58,2.98,31.41,-0.09,0.02,1.33,,,
1640,-13.54,4.03,38.15,-0.08,-0.03,1.19,,,
1642,-20.35,-7.59,44.68,-0.13,-0.04,1.17,,,
1643,-25.4,-12.61,51.18,-0.15,-0.04,1.17,,,
1645,-20.66,-6.91,54.64,-0.17,0.07,1.27,,,
1646,-11.92,-6.7,53.3,-0.13,0.12,1.29,,,
1648,-7.93,-5.63,52.25,-0.12,0.17,1.13,,,
1649,-9.56,-1.15,48.12,-0.09,0.17,1.1,,,
1651,-13.6,5.65,43.66,-0.07,0.14,1.05,,,
1652,-18.47,9.53,39.59,-0.06,0.13,1.01,,,
1654,-18.42,10.38,37.28,-0.02,0.06,0.96,,,
1656,-17.12,9.9,36.75,-0.06,0.08,0.95,,,
1658,-11.67,10.77,37.17,-0.03,0.07,0.94,,,
1659,-6.51,8.77,38.45,-0.05,0.06,0.9,,,
1661,-0.5,9.38,39.07,-0.03,0.04,0.88,,,
1662,2.07,8.38,37.88,-0.07,0.06,0.83,,,
1664,1.89,8.32,36.17,-0.06,0.05,0.79,,,
1665,-0.83,13.96,33.26,-0.09,0.06,0.85,,,
1667,0.01,17.74,29.96,-0.09,0.01,0.87,,,
1668,2.44,20.42,26.62,-0.09,0,0.91,,,
1670,-0.72,10.58,23.91,-0.14,0.03,0.97,,,
1671,-4.8,7.81,22.65,-0.08,0.04,0.86,,,
1673,-10.78,14.87,21.99,-0.12,0,0.91,,,
1674,-10.19,20.9,20.99,-0.1,-0.09,0.95,,,
1676,-8.72,28.36,17.16,-0.16,-0.15,1.04,,,
1677,-7.97,20.81,12.07,-0.13,-0.1,1.04,,,
1679,-5.86,4.86,7.54,-0.07,-0.07,1.07,,,
1680,-6.95,6.22,7.55,-0.18,-0.09,1.12,,,
1682,-13.12,11.67,6.72,-0.19,-0.13,1.22,,,
1683,-18.58,15.25,3.72,-0.22,-0.01,1.21,,,
1685,-23.76,13.16,0.22,-0.23,0.03,1.25,,,
1686,-24.66,11,-1.98,-0.22,-0.01,1.25,,,
1688,-17.61,11.41,-3.9,-0.21,-0.08,1.25,,,
1689,-1.93,10.01,-5.08,-0.2,-0.11,1.25,,,
1691,15.43,8.77,-5.19,-0.18,-0.04,1.19,,,
1692,21.46,5.44,-6.67,-0.19,0.1,1.15,,,
1694,15.87,1.06,-12.25,-0.23,0.18,1.03,,,
1695,4.01,-1.19,-17.54,-0.21,0.14,0.95,,,
1697,-1.89,-1.75,-19.84,-0.18,0.04,0.83,,,
1698,1.61,-3.33,-18.87,-0.19,-0.01,0.77,,,
1700,8.73,-6.91,-18.74,-0.21,0.02,0.82,,,
1701,21.73,-10.31,-19.22,-0.19,0.05,0.82,,,
1703,30.59,-17.14,-19.46,-0.17,0.08,0.78,,,
1704,34.68,-23.62,-19.87,-0.18,0.05,0.82,,,
1706,31.28,-28.7,-19.69,-0.15,0.05,0.83,,,
1707,24.76,-32.29,-19.67,-0.12,-0.01,0.76,,,
1709,18.98,-30.89,-17.32,-0.12,-0.08,0.86,,,
1710,18.85,-23.39,-17.33,-0.09,-0.11,0.93,,,
1712,19.79,-22.65,-18.77,-0.1,-0.07,1.01,,,
1713,19.94,-21.01,-19.41,-0.11,-0.06,1.03,,,
1715,14.49,-17.7,-17.99,-0.12,-0.08,1.03,,,
1716,5.36,-10.59,-15.59,-0.12,-0.11,1.11,,,
1718,-2.66,-6.7,-13.31,-0.13,-0.09,1.16,,,
1719,-9.53,-3.51,-10.01,-0.14,-0.05,1.2,,,
1721,-16.25,-0.35,-6.47,-0.12,-0.08,1.2,,,
1722,-22.22,7.19,-2,-0.13,-0.08,1.27,,,
1724,-28.13,10.44,2.13,-0.16,-0.01,1.16,,,
1725,-34.66,9.54,4.88,-0.14,-0.01,1.28,,,
1727,-41.06,8.83,10.37,-0.12,-0.03,1.22,,,
1728,-45.22,8.34,17.91,-0.12,-0.09,1.19,,,
1730,-43.21,9.83,26.26,-0.12,-0.08,1.21,,,
1731,-32.78,8.47,32.49,-0.16,-0.01,1.25,,,
1733,-20.39,5.44,35.46,-0.17,0.05,1.23,,,
1734,-13.14,0.07,37.25,-0.15,0.1,1.14,,,
1736,-13.25,-2.67,35.54,-0.1,0.1,1.02,,,
1737,-15.22,-7.68,33.54,-0.06,0.07,0.91,,,
1739,-15.08,0.32,31.54,-0.06,0.08,0.95,,,
1740,-8.2,0.48,30.07,-0.01,0.07,1.03,,,
1742,2.8,-12.65,28.81,-0.01,0.02,0.82,,,
1743,9.56,-16.62,27,-0.07,0.02,0.89,,,
1745,10.8,-15.31,25.8,-0.05,-0.01,0.81,,,
1746,12.76,-11.74,25.55,-0.04,-0.02,0.8,,,
1748,13.4,-5.07,23.2,-0.03,0,0.81,,,
1749,11,-8.08,20.31,-0.05,-0.01,0.83,,,
1751,6.09,-7.65,17.65,-0.08,-0.01,0.83,,,
1753,-1.09,-2.71,15.17,-0.13,0.01,0.84,,,
1755,-8.74,-1.83,10.98,-0.17,-0.04,0.9,,,
1756,-11.39,1.33,9.73,-0.14,-0.11,0.85,,,
1758,-8.91,3.92,9.25,-0.16,-0.15,0.95,,,
1759,-4.45,4.25,9.62,-0.22,-0.15,1.04,,,
1761,1.67,0.38,10,-0.18,-0.15,1.02,,,
1762,4.24,-2.68,8.27,-0.2,-0.12,1.13,,,
1764,1.69,-3.26,5.88,-0.27,-0.06,1.23,,,
1765,-2.53,-0.1,2.88,-0.21,-0.03,1.24,,,
1767,-7.03,4.25,-0.16,-0.18,0.01,1.23,,,
1768,-10.28,6.18,-7.66,-0.21,0.03,1.26,,,
1770,-13.57,9.6,-14.19,-0.16,0.02,1.19,,,
1771,-14.86,11.75,-18.67,-0.16,-0.02,1.19,,,
1773,-16.49,14.39,-20.96,-0.13,-0.05,1.16,,,
1774,-15.97,19.45,-22.15,-0.17,-0.02,1.2,,,
1776,-10.38,21.23,-23.35,-0.21,0.06,1.15,,,
1777,-8.05,20.42,-25.98,-0.25,0.13,1.13,,,
1779,-13.05,22.55,-28.32,-0.21,0.12,0.98,,,
1780,-18.9,26.48,-28.79,-0.16,0.02,0.88,,,
1782,-15.8,26.84,-25.28,-0.12,-0.06,0.8,,,
1783,-1.12,16.27,-20.69,-0.11,-0.05,0.81,,,
1785,16.14,2.71,-19.1,-0.13,-0.03,0.81,,,
1786,28.8,-4.06,-20.38,-0.11,0,0.81,,,
1788,34.3,-13.83,-22.6,-0.1,0.02,0.81,,,
1789,34.15,-19.98,-26.38,-0.11,0,0.85,,,
1791,32.48,-23.65,-29.77,-0.12,-0.02,0.88,,,
1792,31.23,-27.2,-30.89,-0.09,-0.06,0.88,,,
1794,29.87,-28.55,-30.62,-0.09,-0.08,0.83,,,
1795,26.04,-28.97,-29.31,-0.08,-0.11,0.89,,,
1797,19.07,-28.87,-28.38,-0.09,-0.12,0.92,,,
1798,9.66,-24.91,-28.8,-0.06,-0.12,0.96,,,
1800,2.51,-18.05,-29.14,0,-0.09,0.95,,,
1801,-5.12,-11.56,-28.21,-0.03,-0.08,1.1,,,
1803,-8.1,-7.04,-24.61,-0.08,-0.1,1.21,,,
1804,-4.72,-5.73,-19.95,-0.09,-0.1,1.19,,,
1806,-0.96,-5.32,-13.4,-0.1,-0.1,1.21,,,
1807,2.35,-5.57,-4.89,-0.08,-0.11,1.22,,,
1809,5.2,-6.19,4.81,-0.08,-0.14,1.19,,,
1810,7.05,-5.25,13.9,-0.08,-0.17,1.19,,,
1812,8.35,-3.82,25.72,-0.01,-0.22,1.21,,,
1813,10.1,-3.58,36.29,0.01,-0.21,1.09,,,
1815,11.71,-1.07,47.22,-0.05,-0.11,1.22,,,
1816,13.99,4.13,55.88,-0.09,-0.02,1.25,,,
1818,16.88,8.4,59.36,-0.1,0.12,1.29,,,
1819,12.86,10.09,59.54,-0.06,0.14,1.23,,,
1821,5.21,11.48,58.87,-0.01,0.11,1.1,,,
1822,1.14,16.78,58.86,0.04,0.07,1,,,
1824,0.28,16.04,59.19,0.05,0.06,0.92,,,
1825,5.98,14.98,58.82,0.04,0.09,0.98,,,
1827,14.76,9.12,57.95,0.05,0.13,0.87,,,
1828,18.25,9.34,55.13,0,0.16,0.93,,,
1830,17.07,11.09,50.72,-0.04,0.17,0.95,,,
1831,13.78,12.72,44.31,-0.05,0.17,0.97,,,
1833,7.63,15.74,38.2,-0.08,0.11,0.91,,,
1834,2.49,21.34,32.81,-0.13,0.07,0.95,,,
1836,-1.05,23.14,27.67,-0.14,0.05,0.9,,,
1837,-5.15,23.33,22.69,-0.18,0.04,0.93,,,
1839,-6.91,22.89,18.1,-0.2,0.01,0.88,,,
1840,-9.86,20.72,14.04,-0.21,-0.02,0.89,,,
1842,-11.24,22.15,10.87,-0.22,-0.01,0.92,,,
1843,-12.6,19.29,8.49,-0.25,-0.02,0.98,,,
1845,-10.64,15.56,5.48,-0.26,0.02,1.03,,,
1846,-7.99,13.83,2.3,-0.26,0.04,1.07,,,
1848,-5.96,13.14,-1.22,-0.26,0.06,1.11,,,
1850,-4.49,12.27,-5.4,-0.26,0.07,1.13,,,
1852,-3.89,13.33,-10.19,-0.25,0.09,1.17,,,
1853,-2.53,13.99,-15.45,-0.25,0.11,1.16,,,
1855,-2.73,13.72,-21.15,-0.26,0.14,1.16,,,
1856,-3.61,13.75,-26.16,-0.25,0.13,1.14,,,
1858,-4.16,12.17,-29.1,-0.25,0.09,1.11,,,
1859,-2.85,8.83,-28.68,-0.23,0.06,1.06,,,
1861,1.26,5.18,-26.19,-0.23,0.08,1.08,,,
1862,7.21,0.87,-24.04,-0.24,0.17,1.13,,,
1864,10.3,-5.25,-23.92,-0.22,0.21,1.05,,,
1865,6.59,-9.77,-24.85,-0.18,0.15,0.96,,,
1867,0.75,-9.16,-24.66,-0.17,0.07,0.92,,,
1868,-0.46,-7.07,-24.51,-0.19,0.02,0.9,,,
1870,3.62,-9.79,-24.52,-0.19,0.03,0.9,,,
1871,8.96,-11.46,-26.2,-0.21,0.04,0.93,,,
1873,12.53,-11.42,-27.95,-0.22,0.05,0.89,,,
1874,14.04,-11.42,-30.89,-0.23,0.06,0.9,,,
1876,13.49,-10.38,-33.89,-0.23,0.05,0.89,,,
1877,11.93,-12.41,-36.59,-0.23,0.04,0.84,,,
1879,9.69,-12.8,-39.26,-0.21,0.01,0.84,,,
1880,8.47,-12.17,-40.64,-0.19,-0.02,0.8,,,
1882,8.2,-11.65,-41.81,-0.17,-0.03,0.84,,,
1883,10.01,-11.03,-42.55,-0.14,-0.06,0.89,,,
1885,10.6,-10.65,-41.72,-0.13,-0.07,0.92,,,
1886,7.3,-8.46,-39.28,-0.13,-0.05,1.04,,,
1888,1.25,-7.67,-36.09,-0.14,-0.02,1.1,,,
1889,-6.89,-7.38,-31.08,-0.14,0,1.15,,,
1891,-13.3,-3.42,-25.34,-0.12,-0.02,1.18,,,
1892,-16.35,0.35,-17.97,-0.11,-0.04,1.17,,,
1894,-14.34,1.39,-11.15,-0.1,-0.02,1.18,,,
1895,-11.85,2.38,-4.58,-0.1,-0.02,1.21,,,
1897,-11.31,5.84,0.95,-0.1,-0.03,1.19,,,
1898,-14.47,9.12,6.07,-0.1,-0.04,1.17,,,
1900,-18.15,12.12,10.42,-0.11,-0.06,1.17,,,
1901,-17.75,11.5,15.12,-0.12,-0.06,1.14,,,
1903,-13.18,7.54,20.01,-0.14,0,1.11,,,
1904,-6.33,4.24,21.71,-0.14,0.05,1.09,,,
1906,0.16,2.31,21.14,-0.14,0.08,1.06,,,
1907,4.51,1.73,18.88,-0.11,0.09,1.04,,,
1909,6.49,0.96,16.28,-0.1,0.08,1,,,
1910,8.06,1.64,15.14,-0.08,0.06,0.95,,,
1912,11.03,1.71,15,-0.07,0.04,0.93,,,
1913,15.39,-0.83,16.26,-0.07,0.04,0.9,,,
1915,19.71,-3.87,17.42,-0.09,0.05,0.91,,,
1916,22.19,-7.2,17.9,-0.11,0.07,0.91,,,
1918,21.1,-9.56,16.92,-0.11,0.07,0.9,,,
1919,16.29,-7.43,14.97,-0.1,0.05,0.86,,,
1921,10.5,-3.75,12.57,-0.11,0.02,0.87,,,
1922,6.62,-1.46,9.88,-0.13,0,0.89,,,
1924,2.41,1.09,8.3,-0.12,-0.03,0.88,,,
1925,-2.54,4.87,7.78,-0.12,-0.04,0.92,,,
1927,-6.93,7.09,8.35,-0.12,-0.07,0.91,,,
1928,-10.51,9.18,9.17,-0.14,-0.05,0.98,,,
1930,-12.28,10.71,10.24,-0.14,-0.05,0.97,,,
1931,-12.01,11.72,11.56,-0.16,-0.06,1.05,,,
1933,-10.93,11.29,13.12,-0.17,-0.04,1.05,,,
1934,-10.83,9.92,14.22,-0.19,0,1.09,,,
1936,-10.67,9.93,13.85,-0.18,0,1.12,,,
1937,-9.64,10.02,12.48,-0.18,0.01,1.12,,,
1939,-7.38,10,10.11,-0.2,0.05,1.14,,,
1940,-6,8.16,5.61,-0.22,0.1,1.16,,,
1942,-6.19,6.23,1.68,-0.24,0.11,1.15,,,
1943,-7.92,5.06,-1.97,-0.23,0.08,1.13,,,
1945,-10.48,2.31,-3.93,-0.22,0.04,1.1,,,
1948,-11.97,0.61,-4.63,-0.22,0.01,1.1,,,
1950,-9.07,0.4,-4.16,-0.24,0.02,1.15,,,
1951,-5.67,-2.95,-3.47,-0.25,0.1,1.14,,,
1953,-4.41,-4.29,-4.77,-0.26,0.16,1.1,,,
1954,-7.73,-3.14,-7.93,-0.25,0.13,1.03,,,
1956,-11.9,-1.36,-10.4,-0.24,0.07,0.98,,,
1957,-11.74,0.86,-10.38,-0.24,0.01,0.93,,,
1959,-6.07,2.21,-7.92,-0.24,-0.02,0.92,,,
1960,0.84,3.19,-5.75,-0.24,-0.01,0.9,,,
1962,7.14,3.04,-3.59,-0.23,0.03,0.93,,,
1963,11.57,0.83,-3.27,-0.23,0.08,0.92,,,
1965,12.34,0.8,-4.43,-0.21,0.09,0.92,,,
1966,11.84,1.61,-5.36,-0.19,0.06,0.88,,,
1968,10.31,1.54,-7.07,-0.19,0.05,0.9,,,
1969,9.84,0.1,-9.3,-0.17,0.04,0.84,,,
1971,9.33,-1.58,-11.61,-0.15,0.01,0.83,,,
1972,10.39,-2.3,-14.54,-0.13,-0.02,0.85,,,
1974,10.88,-5.1,-17.7,-0.15,-0.07,0.83,,,
1975,9.01,-9.18,-20.24,-0.15,-0.07,0.85,,,
1977,3.87,-12.27,-22.21,-0.14,-0.08,0.9,,,
1978,-2,-13.37,-24.5,-0.14,-0.07,0.96,,,
1980,-6.26,-13.86,-25.3,-0.13,-0.09,1.03,,,
1981,-8.2,-11.8,-23.3,-0.13,-0.12,1.12,,,
1983,-7.6,-9.74,-19.26,-0.14,-0.1,1.18,,,
1984,-6.22,-8.08,-14.09,-0.14,-0.1,1.2,,,
1986,-6.61,-4.52,-8.74,-0.12,-0.08,1.2,,,
1987,-7.62,0,-3.87,-0.12,-0.05,1.24,,,
1989,-10.7,3.07,0.2,-0.13,-0.04,1.24,,,
1990,-13.38,6.21,4.84,-0.12,-0.06,1.21,,,
1992,-14.33,7.59,10.52,-0.12,-0.04,1.16,,,
1993,-10.88,9.61,14.91,-0.13,0,1.2,,,
1995,-4.25,7.8,19.3,-0.18,0.06,1.2,,,
1996,-0.92,1.99,21.73,-0.21,0.09,1.16,,,
1998,-3.61,-0.4,23.21,-0.2,0.07,1.07,,,
1999,-7.47,1.8,24.38,-0.17,0.02,0.97,,,
2001,-8.06,5.48,26.13,-0.17,-0.02,0.96,,,
2002,0.16,5.56,28.39,-0.17,-0.02,1.01,,,
2004,13.77,1.71,31.33,-0.16,-0.01,0.97,,,
2005,23,-1.25,33.42,-0.18,0.06,0.99,,,
2007,23.64,-3.17,33.32,-0.18,0.09,0.91,,,
2008,17.72,-5.52,31.69,-0.17,0.07,0.84,,,
2010,14.24,0.21,29.6,-0.15,0.05,0.89,,,
2011,16.53,1.16,26.11,-0.14,0.01,0.83,,,
2013,20.4,1.73,24.39,-0.13,-0.02,0.84,,,
2014,22.14,7.18,21.76,-0.12,0,0.82,,,
2016,19.9,11.77,17.89,-0.16,0.02,0.83,,,
2017,14.49,14.37,13.52,-0.16,0.02,0.83,,,
2019,6.58,17.22,8.91,-0.18,0.02,0.87,,,
2020,-0.52,23.01,4.37,-0.27,0.02,0.89,,,
2022,-6.89,21.64,-1.41,-0.36,0.02,0.93,,,
2023,-9.8,17.16,-4.9,-0.41,-0.03,0.93,,,
2025,-9.38,11.61,-5.97,-0.4,-0.06,0.95,,,
2026,-7.75,7.05,-5.96,-0.41,-0.06,1.01,,,
2028,-5.86,3.42,-6.58,-0.37,-0.02,1.05,,,
2029,-5.2,0.26,-8.12,-0.32,0.02,1.08,,,
2031,-5.5,-1.11,-10.26,-0.28,0.04,1.13,,,
2032,-6.54,0.25,-13.28,-0.24,0.06,1.11,,,
2034,-7.86,3.54,-18.1,-0.22,0.09,1.2,,,
2035,-6.18,7.53,-21.16,-0.21,0.06,1.18,,,
2037,-3.08,11.16,-22.17,-0.24,0.08,1.22,,,
2038,1.52,15.45,-22.99,-0.29,0.11,1.24,,,
2040,4.18,16.37,-24.21,-0.33,0.19,1.2,,,
2041,7.98,15.86,-26.63,-0.35,0.27,1.18,,,
2043,11.53,11.09,-30.83,-0.34,0.34,1.14,,,
2045,11.67,0.41,-35.13,-0.33,0.33,1.01,,,
2047,9.86,-7.33,-38.65,-0.29,0.25,0.86,,,
2048,9.09,-5.51,-41.54,-0.25,0.17,0.8,,,
2050,12.46,-3.87,-44.44,-0.26,0.11,0.83,,,
2051,22.36,-6.88,-45.95,-0.29,0.07,0.93,,,
2053,33.99,-14.1,-46.7,-0.31,0.09,0.86,,,
2054,38.55,-19.64,-48.08,-0.3,0.09,0.82,,,
2056,31.43,-19.83,-48.36,-0.3,0.06,0.81,,,
2057,19.94,-21.27,-47.64,-0.32,0.05,0.87,,,
2059,14.76,-23.54,-46.38,-0.28,0,0.86,,,
2060,14.98,-27,-45.6,-0.25,-0.03,0.87,,,
2062,18.56,-27.42,-44.75,-0.23,-0.06,0.88,,,
2063,20.42,-25.86,-44.35,-0.22,-0.06,0.89,,,
2065,17.85,-24.41,-43.12,-0.22,-0.06,0.9,,,
2066,12.36,-23.05,-41.71,-0.24,-0.04,0.89,,,
2068,6.58,-21.75,-40.23,-0.23,-0.01,0.93,,,
2069,2.72,-20.76,-38.42,-0.2,0,1,,,
2071,2.07,-21.07,-37.25,-0.16,0,0.97,,,
2072,2.34,-18.69,-37.8,-0.13,0.02,0.98,,,
2074,2.96,-14.94,-39.17,-0.14,0.02,1.05,,,
2075,3.11,-19.87,-36.74,-0.16,-0.01,1.01,,,
2077,4.07,-28.95,-33.22,-0.21,0,1.07,,,
2078,0.5,-26.73,-27.4,-0.16,-0.01,1.18,,,
2080,0.57,-26.29,-20.67,-0.14,-0.04,1.2,,,
2081,1.85,-22.06,-16.03,-0.13,-0.04,1.28,,,
2083,5.04,-9.98,-12.99,-0.11,0,1.36,,,
2084,9.11,-2.08,-9.45,-0.12,0.04,1.36,,,
2086,11.56,2.42,-7.14,-0.18,0.14,1.42,,,
2087,8.49,2.84,-5.14,-0.19,0.2,1.35,,,
2089,-1.99,-6.22,-4.48,-0.2,0.19,1.21,,,
2090,-5.7,13.5,-4.54,-0.15,0.19,1.11,,,
2092,-11.15,13.53,-5.12,-0.11,0.13,0.93,,,
2093,-15.89,9.23,-5.7,-0.16,0.12,0.9,,,
2095,-13.45,16.57,-6.77,-0.16,0.09,0.89,,,
2096,-6.36,17.78,-6.58,-0.14,0.09,0.84,,,
2098,5.18,18.45,-5.95,-0.15,0.11,0.91,,,
2099,10.69,3.32,-5.48,-0.19,0.11,0.82,,,
2101,14.21,-0.72,-5.31,-0.21,0.14,0.9,,,
2102,13.72,1.62,-8.04,-0.22,0.17,0.86,,,
2104,6.72,1,-10.79,-0.23,0.16,0.85,,,
2105,-3.85,7.17,-15.61,-0.25,0.16,1.03,,,
2107,-6.82,12.16,-19.93,-0.25,0.11,0.95,,,
2108,-6.3,10.63,-23.31,-0.26,0.07,0.92,,,
2110,-3.94,9.33,-26.85,-0.27,0.03,0.93,,,
2111,-0.86,11.29,-29.12,-0.26,0,0.89,,,
2113,0.08,12.87,-31.48,-0.25,0,0.9,,,
2114,-0.78,9.84,-34.02,-0.28,0.03,0.93,,,
2116,-4.28,7.67,-38.14,-0.29,0.07,0.97,,,
2117,-8.28,6.9,-43.77,-0.29,0.08,1.01,,,
2119,-10.61,6.79,-49.35,-0.29,0.06,1.03,,,
2120,-10.78,6.25,-55.48,-0.28,0.07,1.1,,,
2122,-9.61,7.13,-60.81,-0.27,0.08,1.12,,,
2123,-8.04,7.19,-66.24,-0.27,0.11,1.15,,,
2125,-7.48,6.11,-70.82,-0.27,0.1,1.14,,,
2126,-6.38,6.54,-74.48,-0.25,0.05,1.17,,,
2128,-4.13,4.21,-75.76,-0.25,-0.01,1.14,,,
2129,2.49,3.36,-76.63,-0.25,-0.05,1.18,,,
2131,13.43,6.54,-78.23,-0.3,0.01,1.31,,,
2132,20.01,6.37,-82.41,-0.35,0.14,1.33,,,
2134,17.39,7.48,-89.55,-0.31,0.24,1.21,,,
2135,2.55,10.79,-97.81,-0.29,0.25,1.05,,,
2137,-14.34,13.43,-105.14,-0.27,0.2,0.96,,,
2138,-18.02,15.35,-108.89,-0.22,0.08,0.82,,,
2140,-9.67,18.13,-107.77,-0.21,0.01,0.93,,,
2142,9.2,17.22,-103.96,-0.22,-0.03,0.91,,,
2144,28.36,11.28,-98.64,-0.28,-0.02,0.91,,,
2145,42.09,3.54,-92.1,-0.33,0.07,0.92,,,
2147,38.39,0.94,-88.74,-0.32,0.17,1.02,,,
2148,26.72,0.29,-87.88,-0.33,0.19,0.97,,,
2150,16.3,4.87,-86.5,-0.32,0.14,0.94,,,
2151,11.53,8.15,-85.75,-0.29,0.06,0.93,,,
2153,14.55,11.06,-82.84,-0.25,-0.02,0.86,,,
2154,22.64,7.98,-78.58,-0.23,-0.08,0.77,,,
2156,29.6,5.27,-74.99,-0.22,-0.09,0.79,,,
2157,33.43,5.59,-72.29,-0.21,-0.07,0.78,,,
2159,31.01,6.96,-71.03,-0.2,-0.06,0.89,,,
2160,24.74,5.51,-70.63,-0.21,-0.07,0.88,,,
2162,16.26,6.59,-70.34,-0.2,-0.04,0.97,,,
2163,10.43,8.65,-69.74,-0.16,-0.08,0.97,,,
2165,9.43,8.38,-67.1,-0.14,-0.12,0.99,,,
2166,12.61,6.66,-63.22,-0.13,-0.12,1.02,,,
2168,17.13,4.58,-57.71,-0.13,-0.11,1.05,,,
2169,18.94,1.91,-52.4,-0.12,-0.07,1.06,,,
2171,16.34,-0.58,-46.96,-0.11,-0.05,1.06,,,
2172,12.44,-2.84,-40.24,-0.12,-0.06,1.12,,,
2174,10.34,-5.04,-32.82,-0.13,-0.06,1.16,,,
2175,10.42,-10.08,-24.24,-0.13,-0.07,1.12,,,
2177,10.31,-16,-16.54,-0.13,-0.05,1.11,,,
2178,12.45,-17.33,-9.51,-0.11,-0.03,1.12,,,
2180,16.49,-19.01,-5.19,-0.12,0.03,1.18,,,
2181,18.3,-22.35,-3.83,-0.12,0.1,1.17,,,
2183,14.54,-21.52,-4.79,-0.1,0.13,1.11,,,
2184,8.2,-15.53,-6.32,-0.07,0.1,1.01,,,
2186,1.07,-8.7,-7.19,-0.1,0.05,1.03,,,
2187,1.42,-4.65,-6.28,-0.1,0,1,,,
2189,4.75,-2.54,-3.48,-0.1,-0.04,1,,,
2190,8.34,-2.97,0.53,-0.12,-0.05,1,,,
2192,10.03,-2.3,4.22,-0.15,-0.01,1,,,
2193,9.48,0.12,6.8,-0.17,0.04,1.02,,,
2195,7.49,0.85,7.46,-0.18,0.04,0.98,,,
2196,3.38,3.11,7.23,-0.21,0.06,1.01,,,
2198,2.17,5.44,5.82,-0.21,0.06,0.98,,,
2199,3.16,7.12,3.68,-0.21,0.05,0.98,,,
2201,5.11,8.45,1.52,-0.2,0.02,0.96,,,
2202,7.82,9.02,-0.57,-0.2,-0.01,0.96,,,
2204,8.13,10,-3.09,-0.2,0,0.94,,,
2205,5.33,8.54,-5.57,-0.24,0,0.93,,,
2207,1.66,6.74,-7.69,-0.26,-0.01,0.95,,,
2208,-1.53,7.35,-9.92,-0.26,-0.02,0.97,,,
2210,-4.15,6.67,-12.07,-0.29,-0.02,1.02,,,
2211,-4.68,5.8,-13.71,-0.29,-0.01,1.04,,,
2213,-4.99,6.53,-16.22,-0.3,0,1.07,,,
2214,-5.11,7.61,-18.41,-0.31,0.02,1.11,,,
2216,-5.18,8.35,-21.75,-0.33,0.03,1.13,,,
2217,-5.48,8.95,-24.77,-0.33,0.04,1.14,,,
2219,-6.58,9.08,-27.94,-0.33,0.04,1.14,,,
2220,-6.31,9.58,-29.35,-0.33,0.01,1.11,,,
2222,-5.47,7.55,-30.69,-0.33,-0.01,1.14,,,
2223,-4.37,5,-30.61,-0.33,0,1.15,,,
2225,0.79,7.16,-30.02,-0.32,0.03,1.16,,,
2226,4.83,6.33,-30.56,-0.35,0.12,1.2,,,
2228,8.38,3.78,-32.24,-0.36,0.2,1.19,,,
2229,6.82,0.51,-36.69,-0.34,0.22,1.06,,,
2231,-0.31,-2.11,-41.58,-0.3,0.18,0.95,,,
2232,-1.44,2.03,-45.99,-0.25,0.1,0.84,,,
2234,0.31,1.61,-46.32,-0.27,0.03,0.83,,,
2235,4.42,-7.33,-46.03,-0.29,0.03,0.82,,,
2237,9.96,-12.74,-44.36,-0.27,0.05,0.85,,,
2239,13.12,-12.54,-44.3,-0.27,0.09,0.86,,,
2241,12.78,-14.58,-44.44,-0.25,0.12,0.85,,,
2242,7.98,-15.14,-45.03,-0.27,0.17,0.94,,,
2244,3.66,-17.27,-45.61,-0.26,0.16,0.92,,,
2245,-0.44,-18.1,-47.64,-0.23,0.14,0.88,,,
2247,-1.99,-15.98,-49.13,-0.22,0.07,0.84,,,
2248,-0.67,-16.87,-48.96,-0.21,0.02,0.85,,,
2250,0.39,-19.25,-48.38,-0.2,-0.02,0.83,,,
2251,-0.47,-20.39,-46.96,-0.18,-0.03,0.84,,,
2253,-3.47,-20.88,-46.03,-0.19,-0.01,0.86,,,
2254,-6.51,-18.55,-44.15,-0.17,-0.01,0.93,,,
2256,-5.68,-15.51,-41.49,-0.16,0,0.98,,,
2257,-2.94,-16.97,-37.49,-0.18,0.03,1.01,,,
2259,1.07,-17.13,-33.8,-0.18,0.04,1.04,,,
2260,5.18,-14.6,-29.77,-0.16,0,1.05,,,
2262,9.19,-14.27,-24.95,-0.14,0.02,1.04,,,
2263,12.49,-14.65,-20.54,-0.11,0.04,1.04,,,
2265,15.66,-10.55,-17.3,-0.09,0.04,1.02,,,
2266,15.98,-8.43,-15.59,-0.09,0.05,1.06,,,
2268,19.54,-4.82,-14.51,-0.11,0.05,1.1,,,
2269,23.24,-2.58,-11.53,-0.12,0.05,1.09,,,
2271,26.66,-3.18,-7.95,-0.16,0.07,1.12,,,
2272,27.82,-6.84,-5.66,-0.16,0.08,1.1,,,
2274,26.5,-8.76,-3.94,-0.14,0.05,1.08,,,
2275,22.62,-7.09,-2.12,-0.1,0.03,1.06,,,
2277,19.55,-6.1,-1.38,-0.08,0.01,1.01,,,
2278,20.73,-0.62,-0.3,-0.08,0.01,1.05,,,
2280,23.49,4.19,-0.12,-0.12,0.08,1.12,,,
2281,24.94,3.74,-0.42,-0.14,0.13,1.13,,,
2283,20.89,4.13,-0.87,-0.14,0.12,1.09,,,
2284,14.11,9.17,-2.34,-0.15,0.1,1.03,,,
2286,9.22,14.18,-3.94,-0.16,0.1,1.04,,,
2287,9.04,15.84,-6.33,-0.18,0.08,1.03,,,
2289,10.73,16.75,-8.09,-0.18,0.06,0.99,,,
2290,7.16,17.82,-9.66,-0.17,0.05,0.95,,,
2292,0.65,19.2,-10.72,-0.17,0.05,0.89,,,
2293,-7.09,19.37,-12.12,-0.17,0.06,0.91,,,
2295,-11.38,17.92,-13.26,-0.18,0.04,0.94,,,
2296,-12.02,16.01,-15.26,-0.17,0.05,0.95,,,
2298,-12.4,14.93,-18.33,-0.19,0.05,0.96,,,
2299,-13.64,13.12,-21.26,-0.19,0.05,0.99,,,
2301,-15.26,10.88,-25.45,-0.2,0.07,1.01,,,
2302,-15.96,9.84,-30.41,-0.21,0.08,1.05,,,
2304,-14.68,8.13,-35.92,-0.23,0.12,1.1,,,
2305,-10.25,7.66,-43,-0.24,0.14,1.16,,,
2307,-5.19,6.86,-49.87,-0.26,0.18,1.19,,,
2308,-2.06,4.03,-56.9,-0.27,0.21,1.18,,,
2310,-1.23,2.44,-63.64,-0.26,0.21,1.15,,,
2311,-0.79,1.29,-69.24,-0.25,0.18,1.1,,,
2313,1.26,-0.61,-72.79,-0.25,0.1,1.12,,,
2314,9.11,-2.51,-72.64,-0.26,0.03,1.12,,,
2316,21.26,-2.45,-72.31,-0.26,0.11,1.13,,,
2317,25.25,-3.97,-74.94,-0.29,0.23,1.15,,,
2319,20.24,-5.67,-78.61,-0.29,0.23,1.07,,,
2320,9.25,-2.26,-81.42,-0.25,0.15,0.95,,,
2322,-2.19,0.73,-80.74,-0.22,0.03,0.86,,,
2323,-1.83,2.51,-76.1,-0.23,-0.05,0.88,,,
2325,5.68,2.62,-68.42,-0.2,-0.07,0.86,,,
2326,14.48,-0.5,-60.39,-0.21,-0.05,0.86,,,
2328,18.51,-2.55,-53.25,-0.22,0.02,0.92,,,
2329,14.74,-3.12,-48.26,-0.22,0.08,0.91,,,
2331,7.17,-3.32,-45.26,-0.2,0.1,0.92,,,
2332,0.72,-4.58,-43.67,-0.18,0.08,0.87,,,
2334,-2.67,-5.44,-42.61,-0.17,0.04,0.84,,,
2337,-0.55,-4,-42.12,-0.17,0,0.86,,,
2339,3.5,-6,-41.51,-0.16,-0.01,0.82,,,
2340,6.15,-4.58,-41.96,-0.16,0.02,0.91,,,
2342,6.14,-4.29,-42.54,-0.14,0.04,0.91,,,
2343,1.41,-6.75,-44.33,-0.15,0.07,0.97,,,
2345,-3.58,-6.35,-46.86,-0.14,0.07,0.98,,,
2346,-6.86,-6.21,-47.51,-0.13,0.05,1,,,
2348,-5.51,-5.2,-47.12,-0.12,0.03,1.04,,,
2349,-0.44,-6.3,-45.19,-0.12,0.01,1.05,,,
2351,4.21,-8.39,-41.3,-0.11,0,1.06,,,
2352,6.57,-8.82,-36.48,-0.09,-0.01,1.04,,,
2354,7.24,-10,-31.06,-0.1,0.02,1.09,,,
2355,7.72,-10.74,-25.93,-0.1,0.01,1.13,,,
2357,9.36,-9.91,-19.77,-0.09,-0.02,1.13,,,
2358,11.66,-9.89,-12.67,-0.08,-0.04,1.13,,,
2360,14.16,-10.34,-5.41,-0.08,-0.04,1.13,,,
2361,17.01,-10.61,-0.28,-0.1,0,1.11,,,
2363,21.42,-10.91,2.87,-0.13,0.08,1.14,,,
2364,27.17,-10.52,3.73,-0.14,0.12,1.16,,,
2366,28.78,-10.95,3.75,-0.12,0.11,1.11,,,
2367,25.39,-7.97,4.06,-0.1,0.07,1.06,,,
2369,21.35,0.1,5.1,-0.09,0.05,1.02,,,
2370,17.05,2.51,7.78,-0.11,0.04,1,,,
2372,17.6,6.33,11.02,-0.12,0.06,1.02,,,
2373,18.83,7.08,14.22,-0.13,0.08,1.03,,,
2375,17.33,6.39,15.93,-0.13,0.13,1.04,,,
2376,16.1,4.31,17.77,-0.12,0.12,0.9,,,
2378,8.57,7.06,19.16,-0.12,0.11,0.88,,,
2379,2.81,9.04,19,-0.14,0.13,0.88,,,
2381,-0.31,9.42,17.49,-0.14,0.12,0.91,,,
2382,0.07,10.24,16.25,-0.12,0.09,0.89,,,
2384,0.78,10.87,14.79,-0.13,0.08,0.95,,,
2385,-0.54,12.07,12.91,-0.15,0.08,0.93,,,
2387,-5.15,13.44,10.34,-0.16,0.08,0.95,,,
2388,-10.3,17.46,7.3,-0.16,0.08,0.99,,,
2390,-14.06,16.54,4.04,-0.18,0.06,1,,,
2391,-15.82,13.25,1.17,-0.22,0.04,1.06,,,
2393,-14.9,9.61,-0.97,-0.23,0.03,1.04,,,
2394,-13.91,5.75,-3.02,-0.24,0.04,1.05,,,
2396,-12.97,3.45,-5.77,-0.25,0.05,1.08,,,
2397,-12.03,1.35,-9.33,-0.26,0.08,1.12,,,
2399,-11.25,-1.52,-13.77,-0.27,0.11,1.17,,,
2400,-11.46,-4.88,-18.54,-0.28,0.15,1.19,,,
2402,-14.15,-5.59,-23.16,-0.26,0.13,1.18,,,
2403,-17.04,-5.28,-27.56,-0.24,0.11,1.16,,,
2405,-16.87,-4.1,-30.27,-0.22,0.09,1.15,,,
2406,-8.83,-1.62,-32.28,-0.23,0.11,1.22,,,
2408,2.04,-1.92,-34.51,-0.26,0.17,1.2,,,
2409,6.54,-0.99,-38.9,-0.26,0.33,1.19,,,
2411,1.2,-2.54,-44.58,-0.25,0.28,1.02,,,
2412,-11.09,-2.84,-49.03,-0.22,0.2,0.91,,,
2414,-13.23,1.85,-49.83,-0.18,0.09,0.77,,,
2415,-6.5,-1.4,-46.97,-0.19,0.02,0.79,,,
2417,6.24,-4.52,-44.03,-0.22,0.06,0.84,,,
2418,18.96,-6.91,-41.83,-0.23,0.1,0.9,,,
2420,23.28,-8.04,-40.76,-0.23,0.14,0.88,,,
2421,17.41,-8.03,-40.48,-0.21,0.15,0.83,,,
2423,5.9,-4.61,-40.19,-0.22,0.12,0.9,,,
2424,-1.2,-2.63,-39.73,-0.2,0.09,0.91,,,
2426,-0.57,-5.45,-40.07,-0.17,0.03,0.84,,,
2427,3.4,-8.55,-39.77,-0.15,-0.03,0.85,,,
2429,8.31,-9.65,-39.21,-0.11,-0.06,0.83,,,
2430,7.76,-10.81,-39.59,-0.11,-0.07,0.84,,,
2432,2.77,-12.5,-39.57,-0.11,-0.07,0.91,,,
2434,-2.73,-11.69,-39.35,-0.1,-0.05,0.97,,,
2436,-6.12,-11.2,-37.16,-0.1,-0.06,1.04,,,
2437,-6.14,-12.33,-33.86,-0.12,-0.06,1.12,,,
2439,-2.72,-12,-29.35,-0.13,-0.06,1.16,,,
2440,1.6,-9.07,-24.98,-0.13,-0.05,1.19,,,
2442,2.73,-7.19,-19.87,-0.13,-0.03,1.17,,,
2443,0.45,-6.94,-15.01,-0.12,0.01,1.16,,,
2445,-2.53,-6.64,-9.71,-0.1,0.01,1.13,,,
2446,-4.28,-5.42,-3.84,-0.09,-0.02,1.15,,,
2448,-2.2,-4.83,3.52,-0.08,-0.03,1.15,,,
2449,0.39,-5.15,10.62,-0.08,0,1.16,,,
2451,3.2,-1.77,15.76,-0.09,0.08,1.17,,,
2452,5.18,-1.84,18.73,-0.12,0.17,1.2,,,
2454,4.04,-3.16,19.44,-0.11,0.2,1.19,,,
2455,0.55,-2.26,19.44,-0.07,0.18,1.1,,,
2457,0.35,1.85,19.65,-0.04,0.13,1.03,,,
2458,3.48,6.67,20.42,-0.05,0.11,1.04,,,
2460,9.25,6.02,21.92,-0.05,0.1,1,,,
2461,14.46,5.03,24.49,-0.05,0.09,0.98,,,
2463,17.28,7.48,26.96,-0.06,0.12,1,,,
2464,16.66,7.93,26.4,-0.09,0.17,1.02,,,
2466,14.06,8.05,23.76,-0.1,0.18,1.02,,,
2467,6.12,7.35,20.34,-0.12,0.13,0.99,,,
2469,2.62,15.07,17.5,-0.06,0.11,0.95,,,
2470,1.08,18.92,15.87,-0.07,0.05,0.81,,,
2472,-1.34,19.91,14.3,-0.1,0.02,0.86,,,
2473,0.3,21.87,13.39,-0.13,0.01,0.88,,,
2475,0.53,22.65,12.19,-0.13,0.01,0.9,,,
2476,-1.39,22.79,10.25,-0.13,0.02,0.91,,,
2478,-5.76,23.04,7.13,-0.16,0.03,0.93,,,
2479,-12.16,25.14,3.26,-0.17,0.04,0.99,,,
2481,-15.57,25.25,-0.03,-0.17,0.01,0.98,,,
2482,-14.93,22.63,-1.56,-0.19,-0.02,1.02,,,
2484,-11.11,17.46,-2.84,-0.21,0.01,1.06,,,
2485,-7.02,14.25,-4.7,-0.22,0.05,1.09,,,
2487,-4.76,13.27,-8.1,-0.23,0.1,1.12,,,
2488,-4.84,12.47,-11.93,-0.22,0.11,1.14,,,
2490,-4.77,12.8,-15.8,-0.23,0.14,1.18,,,
2491,-5.25,12.5,-20.61,-0.23,0.16,1.18,,,
2493,-6.73,11.2,-24.56,-0.22,0.12,1.16,,,
2494,-8.59,11.48,-28.25,-0.2,0.08,1.13,,,
2496,-6.82,13.29,-31.09,-0.21,0.05,1.13,,,
2497,1.88,14.35,-31.53,-0.23,0.02,1.16,,,
2499,10.83,9.39,-30.7,-0.28,0.1,1.19,,,
2500,12.86,3.27,-31.93,-0.3,0.2,1.13,,,
2502,1.53,-2.42,-35.16,-0.28,0.21,0.96,,,
2503,-15.45,-3.36,-38.74,-0.23,0.14,0.88,,,
2505,-21.58,-4.09,-38.32,-0.17,0,0.73,,,
2506,-13.28,-8.73,-34.69,-0.17,-0.06,0.83,,,
2508,4.98,-11.78,-28.87,-0.18,-0.05,0.86,,,
2509,21.11,-17.76,-24.07,-0.19,0.01,0.86,,,
2511,22.37,-22.17,-22.6,-0.2,0.1,0.87,,,
2512,10.82,-22.55,-24.07,-0.19,0.12,0.89,,,
2514,-1.03,-17.57,-23.85,-0.15,0.06,0.89,,,
2515,-5.41,-17.07,-22.74,-0.13,0.01,0.92,,,
2517,-1.03,-18.2,-20.19,-0.11,-0.05,0.86,,,
2518,5.25,-19.82,-17.61,-0.11,-0.08,0.87,,,
2520,10.05,-18.18,-14.77,-0.11,-0.09,0.87,,,
2521,9.24,-15.52,-12.97,-0.12,-0.09,0.88,,,
2523,4.08,-13.2,-12.42,-0.14,-0.07,0.96,,,
2524,-1.73,-11.67,-11.22,-0.16,-0.04,1.01,,,
2526,-4.28,-9.75,-10.06,-0.16,-0.04,1.04,,,
2527,-1.06,-10.65,-7.26,-0.14,-0.06,1.07,,,
2529,3.94,-13.67,-3.31,-0.15,-0.05,1.13,,,
2531,7.2,-13.87,0.55,-0.13,-0.05,1.13,,,
2533,7.47,-12.1,4.72,-0.12,-0.03,1.16,,,
2534,3.81,-10,7.67,-0.12,0.01,1.21,,,
2536,-1.34,-7.87,9.02,-0.1,0.02,1.18,,,
2537,-7.57,-5.72,9.88,-0.09,0.02,1.17,,,
2539,-13.73,-4.33,11.26,-0.08,-0.02,1.12,,,
2540,-16.9,-4.34,15.66,-0.06,-0.05,1.1,,,
2542,-15.59,-5.42,21.18,-0.05,-0.06,1.1,,,
2543,-9.14,-7.14,26.84,-0.06,-0.01,1.1,,,
2545,-3.93,-8.91,28.43,-0.1,0.1,1.18,,,
2546,-1.42,-6.9,27.2,-0.1,0.16,1.16,,,
2548,-2.71,-3.85,25.75,-0.08,0.12,1.1,,,
2549,-3.54,1.66,24.96,-0.05,0.07,1.07,,,
2551,-1.47,4.54,26.28,-0.06,0.03,1,,,
2552,3.92,5.68,28.56,-0.07,0,0.96,,,
2554,11.09,5.46,32.39,-0.1,-0.02,0.91,,,
2555,16.9,4.86,36.01,-0.11,-0.02,0.87,,,
2557,19.85,7.37,37.72,-0.14,0,0.89,,,
2558,20.45,8.85,37.29,-0.15,0.05,0.87,,,
2560,17.98,9.65,34.39,-0.17,0.1,0.91,,,
2561,11.96,8.99,29.97,-0.18,0.12,0.94,,,
2563,8.7,12.42,25.26,-0.17,0.09,0.85,,,
2564,5.43,16.64,21.25,-0.18,0.07,0.82,,,
2566,3.2,19.77,17.44,-0.2,0.04,0.86,,,
2567,2.36,19.48,14.04,-0.21,0.03,0.86,,,
2569,2,20.15,11.39,-0.23,0.02,0.9,,,
2570,-1.02,21.01,7.77,-0.27,0.03,0.95,,,
2572,-5.49,19.82,4.08,-0.29,0.03,1.02,,,
2573,-10.05,16.84,-0.06,-0.29,0.02,1.02,,,
2575,-13.64,14.05,-3.94,-0.3,0.02,1.08,,,
2576,-14.25,11,-8.38,-0.29,0,1.13,,,
2578,-11.74,10.06,-12.88,-0.29,0.01,1.19,,,
2579,-8.31,8.77,-18.94,-0.3,0.06,1.23,,,
2581,-5.66,8.19,-25.91,-0.32,0.13,1.25,,,
2582,-5.75,8.23,-32.99,-0.32,0.15,1.23,,,
2584,-7.94,9.03,-40.36,-0.31,0.15,1.19,,,
2585,-9.06,8.58,-47.09,-0.29,0.12,1.13,,,
2587,-3.64,7.27,-51.8,-0.28,0.09,1.08,,,
2588,8.3,4.21,-55.07,-0.29,0.11,1.1,,,
2590,19.64,-0.54,-58.83,-0.29,0.2,1.07,,,
2591,20.78,-6.87,-63.92,-0.28,0.22,0.96,,,
2593,14.71,-7.75,-68.73,-0.24,0.15,0.85,,,
2594,10.21,-3.94,-69.55,-0.24,0.08,0.86,,,
2596,15.66,-5.36,-67.27,-0.24,0.01,0.83,,,
2597,28.19,-8.68,-61.48,-0.24,-0.02,0.83,,,
2599,40.17,-11.54,-55.38,-0.25,0.03,0.85,,,
2600,45.63,-13.89,-51.9,-0.26,0.08,0.9,,,
2602,46.68,-13.62,-49.89,-0.22,0.08,0.93,,,
2603,44.08,-13.12,-48.44,-0.19,0.04,0.89,,,
2605,41.23,-12.52,-46.43,-0.17,0.01,0.92,,,
2606,39.75,-9.91,-44.83,-0.16,-0.04,0.97,,,
2608,40.8,-12.77,-43.42,-0.14,-0.06,0.92,,,
2609,38.52,-14.12,-42.61,-0.12,-0.02,0.97,,,
2611,30.33,-10.34,-41.78,-0.12,0.03,1.06,,,
2612,23.07,-10.04,-40.16,-0.1,0.01,0.98,,,
2614,15.82,-10.28,-37.54,-0.12,0.02,1.04,,,
2615,11.02,-10.94,-33.04,-0.13,0.03,1.04,,,
2617,5.82,-11.49,-26.9,-0.12,0.04,1.06,,,
2618,0.27,-10.7,-20.13,-0.12,0.05,1.08,,,
2620,-4.6,-12.44,-12.32,-0.12,0.08,1.08,,,
2621,-9.31,-14.3,-4.21,-0.11,0.11,1.1,,,
2623,-14.15,-14.12,3.16,-0.09,0.17,1.1,,,
2624,-18.79,-12.66,8.94,-0.08,0.18,1.09,,,
2626,-21.51,-9.12,14.66,-0.05,0.16,1.08,,,
2628,-19.96,-4.28,20.39,-0.04,0.15,1.07,,,
2630,-14.9,-2.07,25.77,-0.06,0.17,1.11,,,
2631,-7.29,-2.46,29.24,-0.07,0.26,1.14,,,
2633,-1.61,-4.13,30.01,-0.07,0.31,1.12,,,
2634,-2.64,-6.23,28.3,-0.05,0.28,1.05,,,
2636,-5.06,-9.72,25.71,-0.07,0.2,0.95,,,
2637,-1.27,-0.1,24.42,-0.02,0.17,0.99,,,
2639,6.42,3.98,23.39,-0.03,0.17,1.01,,,
2640,14.95,3.19,22.59,-0.08,0.21,1.09,,,
2642,20.33,5.51,21.54,-0.1,0.24,1.08,,,
2643,18.14,8.19,22.04,-0.12,0.23,1.05,,,
2645,11.89,7.19,23.23,-0.13,0.21,0.99,,,
2646,7.33,6.36,24.3,-0.13,0.19,1,,,
2648,7.37,9.32,24.09,-0.12,0.16,0.98,,,
2649,10.05,10.21,23.84,-0.12,0.12,0.98,,,
2651,10.9,11.45,22.16,-0.12,0.1,0.92,,,
2652,8.78,18.44,20.92,-0.13,0.09,0.91,,,
2654,2.41,22.45,19.49,-0.14,0.1,0.95,,,
2655,-6.02,21.38,17.68,-0.16,0.08,0.98,,,
2657,-14.03,23.13,15.93,-0.16,0.06,0.98,,,
2658,-19.86,23.27,13.47,-0.17,0.02,0.96,,,
2660,-22.31,22.83,10.26,-0.16,-0.02,0.95,,,
2661,-20.6,26.11,7.62,-0.16,-0.04,0.97,,,
2663,-17.15,24.79,4.89,-0.18,-0.01,1.04,,,
2664,-14.3,19.74,2.42,-0.21,0.03,1.04,,,
2666,-14,14.64,-0.74,-0.23,0.05,1.09,,,
2667,-13.7,11.66,-4.39,-0.23,0.07,1.11,,,
2669,-11.41,9.17,-7.8,-0.23,0.09,1.15,,,
2670,-7.68,6.7,-11.65,-0.23,0.12,1.18,,,
2672,-3.15,4.98,-15.31,-0.22,0.12,1.17,,,
2673,-1.55,-0.19,-18.52,-0.21,0.11,1.16,,,
2675,-2.34,-2.65,-20.61,-0.2,0.08,1.15,,,
2676,-4.86,-5.85,-21.23,-0.2,0.05,1.12,,,
2678,-4.75,-0.33,-21.13,-0.19,0.1,1.15,,,
2679,-4.56,3.51,-22.03,-0.23,0.2,1.26,,,
2681,-5.73,-0.8,-25.47,-0.26,0.23,1.13,,,
2682,-13.02,-3.87,-28.24,-0.19,0.16,0.97,,,
2684,-20.02,3.67,-28.22,-0.14,0.08,0.88,,,
2685,-18.98,10.89,-25.48,-0.15,0.04,0.87,,,
2687,-9.7,4.6,-21.08,-0.18,0.07,0.9,,,
2688,1.62,-3.54,-17.85,-0.2,0.12,0.91,,,
2690,9.42,-8.78,-17.51,-0.22,0.18,0.96,,,
2691,10.94,-11.34,-19.42,-0.19,0.16,0.89,,,
2693,6.36,-13.32,-21.21,-0.16,0.11,0.86,,,
2694,4.37,-11,-22.37,-0.16,0.08,0.84,,,
2696,5.84,-10.28,-22.22,-0.15,0.05,0.8,,,
2697,9.34,-16.48,-22.03,-0.13,0.03,0.81,,,
2699,13.9,-20.71,-22.54,-0.11,0.02,0.81,,,
2700,14.14,-21.88,-23.03,-0.1,0,0.82,,,
2702,10.36,-22.68,-22.61,-0.1,0,0.87,,,
2703,3.83,-21.46,-22.45,-0.1,0.01,0.94,,,
2705,-1.5,-18.82,-21.54,-0.08,0,0.98,,,
2706,-4.29,-16.4,-20.09,-0.07,0,1.04,,,
2708,-3.67,-15.15,-16.82,-0.06,-0.01,1.06,,,
2709,-2.46,-14.36,-11.04,-0.06,-0.02,1.12,,,
2711,-2.56,-13.54,-3.9,-0.05,-0.02,1.11,,,
2712,-4.76,-13.66,3.36,-0.04,0.01,1.13,,,
2714,-6.47,-12.59,7.91,-0.05,0.03,1.18,,,
2715,-8,-10.52,12.13,-0.04,0.03,1.16,,,
2717,-9.77,-8.72,17.53,-0.02,0.01,1.13,,,
2718,-10.12,-7.75,23.72,-0.02,0,1.11,,,
2720,-6.96,-6.88,30.45,-0.04,0.03,1.14,,,
2721,0.44,-6.16,35.03,-0.06,0.09,1.18,,,
2723,7.6,-7.78,37.71,-0.08,0.15,1.19,,,
2726,9.36,-8.67,37.78,-0.07,0.16,1.12,,,
2728,5.59,-5.2,36.46,-0.05,0.12,1.03,,,
2729,2.07,1.26,35.48,-0.04,0.09,0.98,,,
2731,4.33,7.96,36.46,-0.05,0.06,1,,,
2732,11.51,10.55,38.52,-0.07,0.05,1.02,,,
2734,20.17,9.55,41.17,-0.09,0.08,1,,,
2735,22.56,11.9,42.91,-0.12,0.1,1.01,,,
2737,18.64,11.64,42.41,-0.13,0.15,0.98,,,
2738,13.43,12.19,40.55,-0.13,0.14,0.93,,,
2740,9.3,14.48,38.37,-0.13,0.11,0.92,,,
2741,7.88,18.2,35.67,-0.15,0.11,0.94,,,
2743,8.87,19.49,32.02,-0.16,0.11,0.93,,,
2744,8.54,18.54,28.42,-0.17,0.1,0.92,,,
2746,6.17,18.34,25.13,-0.16,0.09,0.86,,,
2747,0.6,20.76,22.41,-0.2,0.08,0.88,,,
2749,-6.12,21.63,19.16,-0.22,0.08,0.89,,,
2750,-10.33,19.7,16.6,-0.23,0.07,0.93,,,
2752,-10.47,19.98,13.74,-0.23,0.06,0.97,,,
2753,-9.09,17.74,11.33,-0.23,0.07,0.99,,,
2755,-6.47,16.7,8.36,-0.24,0.1,1.03,,,
2756,-5.09,15.59,4.95,-0.25,0.14,1.06,,,
2758,-4.02,13.48,0.89,-0.26,0.16,1.09,,,
2759,-2.86,12.71,-4.01,-0.26,0.17,1.14,,,
2761,-2.13,11.87,-9.59,-0.27,0.21,1.19,,,
2762,-0.97,10.54,-15.83,-0.27,0.23,1.14,,,
2764,-1.48,8.94,-21.77,-0.26,0.22,1.13,,,
2765,-1.47,6.79,-26.8,-0.24,0.19,1.12,,,
2767,2.53,6.51,-30.03,-0.25,0.18,1.11,,,
2768,11.27,1.59,-32.76,-0.3,0.23,1.17,,,
2770,21.07,-8.94,-35.64,-0.31,0.32,1.18,,,
2771,19.11,-16.45,-41.36,-0.31,0.36,1.08,,,
2773,6.58,-17.04,-47.42,-0.28,0.27,0.97,,,
2774,-4.27,-16.04,-51.18,-0.24,0.18,0.86,,,
2776,-5.8,-14.29,-50.83,-0.23,0.09,0.85,,,
2777,3.95,-15.1,-48.16,-0.21,0.06,0.82,,,
2779,16.45,-17.84,-45.07,-0.22,0.1,0.93,,,
2780,25.98,-18.22,-42.63,-0.24,0.16,0.94,,,
2782,26.31,-18.26,-41.58,-0.21,0.21,0.88,,,
2783,18.37,-17.96,-40.69,-0.2,0.17,0.91,,,
2785,12.95,-14.55,-39.7,-0.16,0.12,0.93,,,
2786,13.17,-14.41,-39.56,-0.13,0.1,0.88,,,
2788,17.24,-15.11,-39.4,-0.09,0.05,0.88,,,
2789,22.51,-16.46,-38.88,-0.06,0,0.82,,,
2791,23.58,-17.31,-38.48,-0.06,-0.01,0.85,,,
2792,19.73,-18.35,-38.28,-0.07,-0.01,0.9,,,
2794,11.83,-17.91,-37.13,-0.08,0.02,0.97,,,
2795,3.98,-17.49,-34.64,-0.08,0.02,0.97,,,
2797,-1.27,-19.45,-30.5,-0.07,0.01,1.03,,,
2798,-1.46,-19.33,-24.97,-0.07,0,1.05,,,
2800,-0.8,-20.6,-18.51,-0.08,0.02,1.09,,,
2801,-0.53,-18.87,-12.19,-0.07,0.06,1.1,,,
2803,-3.6,-18.33,-5.98,-0.07,0.11,1.1,,,
2804,-7.62,-19.25,-0.26,-0.09,0.13,1.13,,,
2806,-10.05,-16.67,5.02,-0.09,0.11,1.13,,,
2807,-10.32,-12.65,9.83,-0.09,0.13,1.13,,,
2809,-7.49,-10.21,14.15,-0.11,0.16,1.16,,,
2810,-1.24,-7.27,19.16,-0.15,0.18,1.23,,,
2812,5.05,-8.42,24.04,-0.16,0.21,1.23,,,
2813,8.24,-9.8,26.91,-0.16,0.24,1.2,,,
2815,6.8,-8.35,26.02,-0.13,0.23,1.13,,,
2816,5.33,-3.67,24.41,-0.09,0.2,1.14,,,
2818,6.44,1.8,22.42,-0.06,0.18,1.13,,,
2819,10.99,7.22,20.4,-0.06,0.19,1.13,,,
2821,14.82,10.38,18.7,-0.08,0.23,1.1,,,
2823,14.69,12.43,16.51,-0.09,0.27,1.09,,,
2825,11.74,14.13,13.96,-0.09,0.26,1.04,,,
2826,6.59,13.03,11.39,-0.09,0.21,0.95,,,
2828,1.59,14.3,9.91,-0.07,0.18,0.92,,,
2829,-0.68,18.45,8.36,-0.06,0.14,0.87,,,
2831,-2.17,19.45,7.81,-0.07,0.13,0.86,,,
2832,-3.49,19.41,5.84,-0.08,0.13,0.85,,,
2834,-6.89,20.45,4.88,-0.08,0.11,0.85,,,
2835,-12.06,21.63,3.92,-0.09,0.1,0.86,,,
2837,-16.68,22.32,2.43,-0.1,0.08,0.87,,,
2838,-19.8,22.4,1,-0.13,0.08,0.92,,,
2840,-20,23.02,-0.67,-0.14,0.08,0.97,,,
2841,-18.34,20.86,-4.06,-0.14,0.07,0.99,,,
2843,-15.97,20.25,-6.6,-0.13,0.06,1.01,,,
2844,-14.34,19.02,-8.87,-0.14,0.07,1.02,,,
2846,-13.6,15.77,-11.74,-0.16,0.09,1.05,,,
2847,-11.38,12.41,-14.98,-0.17,0.11,1.07,,,
2849,-8.05,8.66,-17.67,-0.19,0.14,1.1,,,
2850,-5.51,4.33,-20.45,-0.21,0.16,1.12,,,
2852,-4.4,1.74,-24,-0.21,0.18,1.11,,,
2853,-5.21,-0.42,-27.48,-0.2,0.15,1.11,,,
2855,-6.39,-0.99,-29.83,-0.19,0.11,1.1,,,
2856,-4.02,1.48,-30.53,-0.17,0.08,1.07,,,
2858,5.08,3.06,-30.93,-0.2,0.14,1.19,,,
2859,12.83,0.88,-33.19,-0.22,0.24,1.16,,,
2861,11.94,-0.89,-37.64,-0.21,0.28,1.04,,,
2862,0.41,1.15,-41.1,-0.18,0.2,0.95,,,
2864,-8.09,4.03,-41.96,-0.15,0.12,0.88,,,
2865,-5.47,5.05,-39.9,-0.15,0.05,0.87,,,
2867,7.62,-0.42,-35.69,-0.18,0.05,0.87,,,
2868,22.23,-7.28,-31.28,-0.23,0.11,0.92,,,
2870,28.88,-11.98,-28.15,-0.24,0.15,0.92,,,
2871,23.02,-13.63,-26.64,-0.22,0.14,0.92,,,
2873,13.76,-11.23,-26.31,-0.18,0.11,0.92,,,
2874,7.2,-8.51,-26.03,-0.16,0.08,0.94,,,
2876,7.5,-8.44,-24.62,-0.14,0.01,0.88,,,
2877,9.94,-10.76,-22.21,-0.12,-0.03,0.89,,,
2879,10.39,-11.89,-19.91,-0.12,-0.04,0.91,,,
2880,6.56,-9.38,-19.42,-0.11,-0.02,0.94,,,
2882,-0.57,-7.91,-19.78,-0.1,0,0.97,,,
2883,-9.35,-7.74,-20.06,-0.11,0,1.02,,,
2885,-15.04,-7.06,-19.35,-0.1,-0.02,1.03,,,
2886,-17.23,-4.9,-16.14,-0.09,-0.05,1.03,,,
2888,-14.7,-2.93,-10.48,-0.1,-0.06,1.06,,,
2889,-12.44,-4.73,-3.87,-0.09,-0.05,1.07,,,
2891,-11.7,-4.55,2.67,-0.08,-0.02,1.1,,,
2892,-12.1,-8.42,8.77,-0.08,0.01,1.11,,,
2894,-12.96,-8.13,13.75,-0.08,0.04,1.16,,,
2895,-14.21,-6.26,17.76,-0.08,0.05,1.18,,,
2897,-13.22,-7.23,21.42,-0.06,0.04,1.11,,,
2898,-12.35,-8.42,25.27,-0.06,0.04,1.11,,,
2900,-9.16,-7.52,30.04,-0.06,0.06,1.09,,,
2901,-4.02,-5.08,33.84,-0.1,0.08,1.15,,,
2903,-0.55,-8.94,36.45,-0.14,0.15,1.19,,,
2904,1.88,-9.92,36.33,-0.1,0.18,1.08,,,
2906,-1.94,-7.76,35.38,-0.11,0.16,1.01,,,
2907,-4.67,0.94,34.87,-0.09,0.12,0.99,,,
2909,-1.49,4.29,35.67,-0.08,0.07,1,,,
2910,6.06,3.87,38.39,-0.11,0.08,1.04,,,
2912,13.5,4.62,40.36,-0.12,0.11,1.04,,,
2913,13.85,5.8,40.92,-0.12,0.16,1.03,,,
2915,7.51,4.74,40.09,-0.1,0.17,0.95,,,
2916,2.05,7.61,38.29,-0.11,0.15,0.94,,,
2918,-2.38,7.7,35.48,-0.09,0.11,0.9,,,
2920,-0.83,9.03,32.12,-0.08,0.08,0.86,,,
2922,3.32,11.88,28.25,-0.1,0.08,0.9,,,
2923,5.79,11.51,24.09,-0.13,0.08,0.9,,,
2925,2.81,11.71,20.88,-0.14,0.06,0.89,,,
2926,-3.13,14.99,18.93,-0.14,0.02,0.89,,,
2928,-8.7,16.79,17.76,-0.17,-0.01,0.9,,,
2929,-13.71,18.31,17.23,-0.21,0,1.05,,,
2931,-14.79,20.05,16.13,-0.19,-0.01,1.05,,,
2932,-14.76,22.37,13.97,-0.19,0,1.08,,,
2934,-15.61,24.72,11.9,-0.19,0.05,1.1,,,
2935,-17.12,25.43,8.93,-0.22,0.08,1.17,,,
2937,-18.42,25.93,5.36,-0.24,0.08,1.16,,,
2938,-19.64,26.34,0.97,-0.25,0.13,1.16,,,
2940,-21.57,25.35,-4.37,-0.27,0.14,1.16,,,
2941,-22.26,23.58,-11.45,-0.27,0.15,1.11,,,
2943,-20.38,20.18,-18.77,-0.27,0.12,1.03,,,
2944,-10.26,15.74,-23.73,-0.27,0.05,0.97,,,
2946,9.39,6.73,-26.86,-0.31,0.06,1.12,,,
2947,26.25,-3.53,-29.66,-0.3,0.19,1.07,,,
2949,29.2,-10.01,-35.88,-0.31,0.34,1.1,,,
2950,21.14,-10.86,-43.64,-0.28,0.33,1.02,,,
2952,8.99,-13.27,-52.4,-0.23,0.27,0.96,,,
2953,8.82,-10.07,-56.9,-0.18,0.16,0.88,,,
2955,20.59,-10.11,-57.86,-0.16,0.04,0.81,,,
2956,38.82,-13.68,-55.31,-0.21,0.06,0.88,,,
2958,48.25,-18.33,-52.72,-0.24,0.15,0.89,,,
2959,42.62,-23.17,-54.03,-0.24,0.21,0.92,,,
2961,30.32,-24.85,-53.93,-0.24,0.21,0.79,,,
2962,19.69,-25.97,-54.31,-0.21,0.17,0.87,,,
2964,16.21,-25.88,-51.8,-0.19,0.1,0.86,,,
2965,17.86,-27.51,-48.06,-0.19,0.04,0.86,,,
2967,20.77,-31.02,-43.77,-0.17,0,0.85,,,
2968,17.43,-30.7,-39.8,-0.14,0,0.85,,,
2970,9.3,-26.87,-36.81,-0.1,0.01,0.9,,,
2971,0.59,-21.87,-35.5,-0.06,0.03,0.96,,,
2973,-6.17,-17.78,-33.85,-0.08,0.02,1.07,,,
2974,-7.21,-16.49,-30.9,-0.06,-0.02,1.05,,,
2976,-5.96,-14.09,-25.96,-0.04,-0.04,1.08,,,
2977,-5.81,-11.77,-20.41,-0.04,-0.05,1.11,,,
2979,-7.67,-10.08,-13.85,-0.02,-0.08,1.12,,,
2980,-8.7,-6.29,-6.5,-0.02,-0.07,1.17,,,
2982,-7.55,-5.27,-0.02,-0.03,-0.02,1.21,,,
2983,-5.27,-4.46,4.83,-0.02,0,1.29,,,
2985,-3.54,-2.82,8.45,0,-0.01,1.28,,,
2986,-0.76,-2.73,12.09,0.02,-0.04,1.25,,,
2988,5.4,-3.58,17.94,0.02,-0.06,1.26,,,
2989,12.19,-5.23,24.09,-0.02,0.03,1.3,,,
2991,11.81,-13.1,25.34,-0.09,0.18,1.4,,,
2992,5.24,-12.71,25.6,-0.09,0.3,1.24,,,
2994,-6.45,-9.82,23.41,-0.04,0.25,1.1,,,
2995,-17.73,-1.52,21.46,-0.02,0.21,1.03,,,
2997,-20.79,6.37,21.16,0.01,0.16,1.02,,,
2998,-17.26,7.13,22.26,0.01,0.11,0.95,,,
3000,-7.48,7.86,23.07,-0.03,0.17,0.99,,,
3001,0.13,10.11,23.04,-0.04,0.2,0.94,,,
3003,-3.88,5.44,20.33,-0.07,0.21,0.92,,,
3004,-11.83,9.48,17.07,-0.1,0.17,0.89,,,
3006,-20.27,18.87,10.5,-0.17,0.16,1,,,
3007,-18.71,20.17,4.69,-0.11,0.05,0.94,,,
3009,-13.52,19.31,2.76,-0.23,-0.01,0.95,,,
3010,-6.95,18.44,5.05,-0.19,-0.08,0.84,,,
3012,-4.15,18.35,7.96,-0.2,-0.09,0.84,,,
3013,-0.9,19.16,12.1,-0.13,-0.05,0.82,,,
3015,0.48,16.87,14.49,-0.14,-0.01,0.9,,,
3017,-0.49,14.74,15.87,-0.17,0.05,0.94,,,
3019,-2.95,11.71,16.1,-0.14,0.08,0.92,,,
3020,-6.51,11.13,15.65,-0.14,0.09,0.95,,,
3022,-8.23,10.43,14.17,-0.14,0.1,0.98,,,
3023,-7.74,10.88,10.98,-0.14,0.14,0.98,,,
3025,-7.75,11.55,5.51,-0.15,0.19,1.04,,,
3026,-8.24,11.72,-0.87,-0.16,0.22,1.04,,,
3028,-10.81,9.04,-8.12,-0.17,0.25,1.03,,,
3029,-14.14,7.3,-14.16,-0.16,0.22,1.04,,,
3031,-12.99,6.19,-19.71,-0.17,0.2,1.07,,,
3032,-6.65,5.08,-23.87,-0.2,0.17,1.07,,,
3034,3.66,6.38,-26.58,-0.24,0.16,1.1,,,
3035,15.06,7.85,-26.84,-0.27,0.15,1.19,,,
3037,25.04,8.17,-27.86,-0.3,0.19,1.23,,,
3038,31.04,5.25,-28.41,-0.33,0.26,1.19,,,
3040,29.12,-0.59,-30.95,-0.32,0.24,1.06,,,
3041,21.23,-9.03,-34.03,-0.29,0.16,0.95,,,
3043,19.16,-8.37,-36.2,-0.23,0.07,0.85,,,
3044,22.5,-6.34,-36.45,-0.21,0.01,0.87,,,
3046,26.57,-11.55,-35.94,-0.24,0.05,0.96,,,
3047,25.43,-18.54,-36.48,-0.24,0.15,0.94,,,
3049,15.6,-19.87,-38.82,-0.24,0.17,0.91,,,
3050,4.95,-17.19,-42.09,-0.23,0.13,0.93,,,
3052,-0.31,-14.8,-44.15,-0.22,0.07,0.99,,,
3053,0.59,-15.31,-45.39,-0.21,0.03,0.91,,,
3055,2.4,-14.94,-45.63,-0.16,0.03,0.89,,,
3056,2.85,-14.84,-44.95,-0.14,0.01,0.88,,,
3058,0.57,-14.81,-43.73,-0.14,-0.01,0.85,,,
3059,-2.82,-15.51,-42.63,-0.13,0.02,0.9,,,
3061,-7.48,-15.36,-40.8,-0.12,0.02,0.98,,,
3062,-7.18,-16.49,-37.32,-0.1,0,0.93,,,
3064,-5,-15.53,-33.24,-0.09,-0.01,0.99,,,
3065,0.63,-13.65,-29.9,-0.09,0.02,1.06,,,
3067,5.93,-12.66,-25.99,-0.09,0.05,1.11,,,
3068,9.66,-12.74,-21.43,-0.1,0.08,1.11,,,
3070,8.1,-11.46,-16.51,-0.1,0.1,1.11,,,
3071,3.66,-7.71,-14.34,-0.1,0.13,1.15,,,
3073,1.14,-5.13,-12.59,-0.11,0.14,1.16,,,
3074,1.17,-4.91,-10.38,-0.11,0.13,1.11,,,
3076,3.81,-6.29,-7.31,-0.11,0.09,1.09,,,
3077,7.99,-7.09,-3.55,-0.12,0.08,1.11,,,
3079,17.05,-8.76,-1.11,-0.13,0.04,1.09,,,
3080,31.43,-12.78,1.61,-0.15,0.02,1.15,,,
3082,46.7,-18.91,3.66,-0.15,0.05,1.1,,,
3083,50.59,-23.6,3.82,-0.14,0.13,1.04,,,
3085,42.46,-24.91,0.92,-0.13,0.15,0.97,,,
3086,32.61,-20.39,-3.35,-0.11,0.12,0.93,,,
3088,22.75,-12.64,-7.2,-0.09,0.11,0.93,,,
3089,16.82,-9.56,-10.7,-0.14,0.16,1.02,,,
3091,17.19,-6.82,-12.98,-0.15,0.22,1.07,,,
3092,14.8,-2.12,-15.79,-0.17,0.28,1.08,,,
3094,9.91,4.6,-18.78,-0.17,0.32,1.07,,,
3095,2.52,9.55,-21.86,-0.17,0.34,1.08,,,
3097,-2.68,13.81,-24.73,-0.17,0.31,1.06,,,
3098,-3.87,18.01,-26.59,-0.15,0.24,1.02,,,
3100,-4.93,20.19,-28.78,-0.13,0.19,0.97,,,
3101,-6.28,21.79,-30.73,-0.13,0.16,0.94,,,
3103,-8.76,23.98,-33.24,-0.12,0.13,0.91,,,
3104,-13.34,24.45,-36.72,-0.13,0.11,0.89,,,
3106,-18.53,24.75,-41.26,-0.16,0.09,0.89,,,
3107,-21.17,27.06,-45.25,-0.16,0.05,0.92,,,
3109,-22.57,25.14,-48.14,-0.2,0.04,0.94,,,
3110,-22.58,20.88,-50.2,-0.23,0.06,1,,,
3112,-19.85,19.9,-53.83,-0.25,0.09,1.03,,,
3115,-16.65,17.78,-58.19,-0.27,0.12,1.05,,,
3117,-12.69,15.54,-62.85,-0.3,0.14,1.11,,,
3118,-9.89,12.23,-67.77,-0.32,0.17,1.1,,,
3120,-8.89,9.77,-72.49,-0.34,0.19,1.13,,,
3121,-10.29,7.54,-77.46,-0.36,0.18,1.11,,,
3123,-11.86,5.59,-81.02,-0.36,0.16,1.09,,,
3124,-11.31,2.81,-82.84,-0.35,0.1,1.1,,,
3126,-4.08,1.54,-82.88,-0.36,0.06,1.14,,,
3127,6.14,2.24,-82.98,-0.38,0.1,1.23,,,
3129,12.03,-1.82,-85.88,-0.36,0.23,1.16,,,
3130,7.88,-2.33,-92.13,-0.33,0.33,1.09,,,
3132,-1.51,-0.58,-99.92,-0.3,0.34,1.06,,,
3133,-10.67,-1.26,-107.96,-0.27,0.28,0.95,,,
3135,-14.15,-2.41,-111.99,-0.23,0.19,0.86,,,
3136,-5.27,-3.54,-112.38,-0.21,0.08,0.83,,,
3138,8.3,-9.29,-109.63,-0.23,0.03,0.82,,,
3139,21.73,-17.26,-105.92,-0.26,0.06,0.82,,,
3141,26.44,-23.19,-103.08,-0.26,0.11,0.89,,,
3142,20.55,-25.75,-101.73,-0.25,0.13,0.9,,,
3144,11.04,-25.02,-101.7,-0.24,0.1,0.89,,,
3145,5.69,-23.55,-102.81,-0.2,0.06,0.91,,,
3147,7.75,-20.8,-103.61,-0.16,-0.01,0.86,,,
3148,13.41,-18.87,-103.62,-0.15,-0.09,0.85,,,
3150,16.26,-18.23,-101.48,-0.17,-0.13,0.87,,,
3151,14.36,-16.29,-96.67,-0.18,-0.13,0.88,,,
3153,8.47,-13.5,-89.82,-0.19,-0.11,0.95,,,
3154,4.66,-11.62,-81.13,-0.2,-0.12,1.04,,,
3156,3.97,-12.04,-70.84,-0.19,-0.12,1.06,,,
3157,5.75,-8.72,-60.34,-0.14,-0.12,1.07,,,
3159,7.54,-6.48,-50.46,-0.1,-0.09,1.07,,,
3160,9.22,-3.46,-42.12,-0.06,-0.05,1.08,,,
3162,9.56,-2.94,-34.85,-0.03,0,1.08,,,
3163,9.69,-2.68,-28.66,-0.01,0.05,1.08,,,
3165,8.94,-2.99,-23.48,0,0.08,1.13,,,
3166,4.05,-7.29,-19.86,0,0.1,1.08,,,
3168,-0.62,-6.36,-16.69,0.04,0.07,1.11,,,
3169,-1.41,-3.62,-12.61,0.05,0.05,1.09,,,
3171,1.77,-6.77,-7.62,0.04,0.02,1.1,,,
3172,10.21,-8.58,-4.71,0.01,0.06,1.18,,,
3174,18.01,-11.75,-3.34,-0.03,0.13,1.19,,,
3175,19.13,-12.21,-5.19,-0.05,0.19,1.18,,,
3177,12.88,-7.87,-8.09,-0.05,0.17,1.1,,,
3178,5.71,-3.78,-10.92,-0.06,0.11,1.04,,,
3180,4.19,1.61,-11.27,-0.08,0.04,1.02,,,
3181,8.31,6.89,-10.91,-0.11,0.01,1.05,,,
3183,16.09,9.42,-8.87,-0.13,0.03,1.04,,,
3184,18.91,10.51,-7.87,-0.15,0.07,0.97,,,
3186,16.02,15.33,-7.03,-0.17,0.07,0.94,,,
3187,9.98,18.37,-6.54,-0.2,0.09,0.94,,,
3189,6.16,17.14,-6.62,-0.2,0.09,0.93,,,
3190,5.14,17.37,-8.04,-0.21,0.11,0.95,,,
3192,5.43,17.45,-10.23,-0.19,0.1,0.91,,,
3193,5.31,17.48,-12.33,-0.19,0.07,0.91,,,
3195,4.46,18.17,-13.91,-0.17,0.05,0.89,,,
3196,1.4,19.81,-14.43,-0.18,0.03,0.9,,,
3198,-2.18,20.54,-15.72,-0.19,0.04,0.96,,,
3199,-5.76,21.25,-17.89,-0.21,0.04,0.96,,,
3201,-9.02,21.88,-20.19,-0.21,0.02,0.94,,,
3202,-11.6,22.12,-23.26,-0.23,0.01,0.96,,,
3204,-12.53,21.34,-26.44,-0.24,-0.02,0.97,,,
3205,-11.35,20.33,-28.83,-0.25,-0.04,1,,,
3207,-6.81,20,-31.12,-0.26,-0.03,1.02,,,
3208,-3.25,19.22,-34.19,-0.27,-0.01,1.09,,,
3210,1.32,19.13,-37.9,-0.29,0.03,1.16,,,
3212,3.54,18.02,-42.3,-0.32,0.09,1.21,,,
3214,3.12,15.72,-46.96,-0.33,0.13,1.2,,,
3215,0.84,13.9,-52.34,-0.32,0.14,1.18,,,
3217,-2.17,12.32,-57.66,-0.32,0.09,1.15,,,
3218,-4.39,10.74,-60.5,-0.3,0.02,1.12,,,
3220,-0.83,10.02,-62.99,-0.29,-0.02,1.12,,,
3221,12.5,8.7,-64.6,-0.31,0.04,1.14,,,
3223,19.23,4.46,-68.47,-0.34,0.18,1.16,,,
3224,14.76,1.51,-74.28,-0.32,0.28,1.07,,,
3226,0.97,-1.08,-80.3,-0.25,0.24,0.92,,,
3227,-9.96,-3.12,-83.83,-0.2,0.14,0.85,,,
3229,-6.82,-4.77,-83.48,-0.17,0.06,0.83,,,
3230,9.29,-9.79,-79.88,-0.17,0.01,0.82,,,
3232,28.62,-16.54,-74.73,-0.19,0.04,0.89,,,
3233,41.31,-22.72,-69.87,-0.2,0.09,0.86,,,
3235,39.13,-23.04,-66.93,-0.2,0.1,0.91,,,
3236,27.95,-19.66,-64.21,-0.19,0.06,0.89,,,
3238,17.37,-16.37,-60.44,-0.17,0,0.91,,,
3239,14.93,-14.27,-56.21,-0.16,-0.08,0.93,,,
3241,17.49,-13.87,-50.97,-0.14,-0.11,0.92,,,
3242,20.78,-13.51,-46.11,-0.13,-0.12,0.88,,,
3244,18,-12.38,-42.48,-0.09,-0.09,0.84,,,
3245,7.62,-9.62,-39.97,-0.1,-0.08,0.92,,,
3247,-2.81,-7.75,-37.5,-0.12,-0.09,1,,,
3248,-9.3,-7.52,-34.4,-0.12,-0.05,1.02,,,
3250,-12.22,-5.3,-30.76,-0.1,-0.05,1.09,,,
3251,-11.78,-4.96,-26.39,-0.11,-0.01,1.11,,,
3253,-10.28,-5.68,-22.05,-0.11,0.02,1.14,,,
3254,-9.83,-4.29,-17.21,-0.12,0.02,1.11,,,
3256,-9.58,-1.96,-12.57,-0.13,0.03,1.14,,,
3257,-7.67,0.38,-9.05,-0.12,0.05,1.15,,,
3259,-6.52,4.22,-5.24,-0.12,0.04,1.13,,,
3260,-5.57,6.87,-1.79,-0.12,0.02,1.09,,,
3262,-3.29,7.61,1.51,-0.11,0.02,1.08,,,
3263,0.75,7.47,5.99,-0.11,0.01,1.11,,,
3265,6.76,5.49,10.23,-0.11,0.05,1.09,,,
3266,14.07,3.53,13.33,-0.13,0.1,1.1,,,
3268,19.62,0.9,13.93,-0.14,0.15,1.09,,,
3269,21.27,-2.43,12.09,-0.12,0.15,0.99,,,
3271,16.59,-3.02,9.27,-0.1,0.11,0.99,,,
3272,11.49,0.28,7.01,-0.09,0.07,0.94,,,
3274,8.94,5.39,5.88,-0.11,0.05,0.97,,,
3275,8.82,5.73,6.48,-0.13,0.03,0.95,,,
3277,7.36,4.16,8.28,-0.17,0.01,0.98,,,
3278,5.4,5.22,11.12,-0.18,0,0.95,,,
3280,2.2,5.98,14.75,-0.19,0,0.98,,,
3281,-1.12,5.87,18.1,-0.18,0.01,0.97,,,
3283,-2.86,6.82,19.46,-0.19,0.02,0.98,,,
3284,-4.44,7.93,19.84,-0.18,0.02,0.99,,,
3286,-5.3,9.34,19.36,-0.17,0.02,0.95,,,
3287,-5.54,12.24,18.04,-0.18,0,0.95,,,
3289,-3.8,13.6,16.97,-0.19,0,0.95,,,
3290,-1.67,13.59,16.55,-0.19,-0.01,0.96,,,
3292,-0.05,13.87,15.54,-0.2,-0.02,0.95,,,
3293,0.4,14.32,14.55,-0.21,-0.03,0.96,,,
3295,0.62,14.9,12.84,-0.23,-0.03,1.01,,,
3296,1.53,13.65,11.28,-0.22,-0.02,1.04,,,
3298,0.85,12.47,8.74,-0.22,-0.01,1.05,,,
3299,-0.06,12.45,5.42,-0.24,0.01,1.07,,,
3301,-0.41,13.51,1.61,-0.25,0.02,1.09,,,
3302,1.72,13.33,-1.57,-0.28,0.06,1.11,,,
3304,4.96,12.09,-5.67,-0.31,0.11,1.11,,,
3305,6.95,9.08,-9.39,-0.32,0.14,1.13,,,
3307,8.31,6.9,-12.59,-0.3,0.11,1.1,,,
3309,10.37,4.46,-13.89,-0.29,0.1,1.15,,,
3311,13.09,0.48,-14.51,-0.29,0.1,1.13,,,
3312,16.4,-1.41,-15.64,-0.29,0.15,1.19,,,
3314,19.1,-0.5,-18.85,-0.3,0.23,1.18,,,
3315,16.33,-2.58,-24.25,-0.31,0.27,1.12,,,
3317,7.49,-7.14,-29.83,-0.27,0.2,1.03,,,
3318,-0.59,-10.09,-32.16,-0.23,0.1,0.89,,,
3320,-6.14,-8.61,-31.53,-0.22,0.04,0.93,,,
3321,-5.99,-9.14,-29.94,-0.22,0.04,0.9,,,
3323,1.18,-12.74,-26.81,-0.2,0.04,0.93,,,
3324,10.2,-16.5,-25.25,-0.21,0.09,0.97,,,
3326,17.88,-20.44,-24.54,-0.19,0.14,0.94,,,
3327,15.89,-23.96,-25.3,-0.15,0.14,0.88,,,
3329,12.87,-22.63,-27.33,-0.1,0.11,0.81,,,
3330,5.7,-16.33,-30.03,-0.11,0.13,0.81,,,
3332,-1.43,-15.81,-31.55,-0.11,0.06,0.89,,,
3333,-4.7,-12.81,-31.64,-0.1,0.05,0.82,,,
3335,-6.71,-13.02,-30.41,-0.11,-0.01,0.82,,,
3336,-4.51,-12.2,-28.2,-0.13,-0.05,0.86,,,
3338,-1.53,-13.26,-25.9,-0.13,-0.04,0.9,,,
3339,0.49,-15.55,-22.11,-0.12,-0.07,0.93,,,
3341,1.01,-15.02,-17.83,-0.1,-0.04,0.96,,,
3342,-1.86,-12.11,-13.58,-0.1,0.04,0.97,,,
3344,-8.99,-12.29,-10.81,-0.12,0.03,1.11,,,
3345,-10.67,-12.08,-6.13,-0.11,0.03,1.14,,,
3347,-10.36,-10.56,-1.3,-0.1,0.03,1.16,,,
3348,-9.18,-11.75,3.04,-0.1,0.01,1.15,,,
3350,-9.29,-11.72,6.3,-0.07,0,1.16,,,
3351,-5.1,-6.39,10.34,-0.03,-0.03,1.12,,,
3353,-2.96,-3.59,14.74,-0.05,0.01,1.15,,,
3354,2.5,-0.71,18.42,-0.09,0.1,1.23,,,
3356,8.26,0.24,20.42,-0.11,0.2,1.35,,,
3357,12.08,-1.35,20.26,-0.08,0.23,1.26,,,
3359,10.75,-3.36,19.65,-0.09,0.2,1.23,,,
3360,6.03,4.41,17.97,-0.04,0.13,1.05,,,
3362,-0.27,8.76,15.65,-0.05,0.1,1.03,,,
3363,-4.49,14.19,13.46,-0.08,0.1,1.01,,,
3365,-3.3,18.12,11.97,-0.06,0.08,1.01,,,
3366,-1.7,16.7,12.66,-0.09,0.08,0.95,,,
3368,-2.6,13.67,13.79,-0.12,0.07,0.9,,,
3369,-8.17,15,15.23,-0.11,0.05,0.86,,,
3371,-14.01,16.51,16.17,-0.12,0.05,0.87,,,
3372,-15.37,21.66,15.92,-0.13,0.05,0.92,,,
3374,-15.38,21.84,15.35,-0.14,0.05,0.98,,,
3375,-13.54,20.24,14.99,-0.14,0.02,0.94,,,
3377,-12.83,20.19,15.69,-0.09,0,0.91,,,
3378,-12.81,18.87,17.68,-0.09,-0.02,0.88,,,
3380,-11.98,17.35,18.52,-0.09,-0.05,0.92,,,
3381,-10.19,18.06,18.92,-0.1,-0.05,0.96,,,
3383,-9.16,16.85,18.6,-0.12,-0.04,1.04,,,
3384,-10.24,16.5,17.26,-0.16,-0.02,1.03,,,
3386,-14.17,13.77,15.88,-0.16,0,1.04,,,
3387,-18.19,12.44,12.95,-0.2,0.07,1.09,,,
3389,-21.74,11.64,8.58,-0.22,0.07,1.14,,,
3390,-22.83,10.84,3.47,-0.22,0.07,1.14,,,
3392,-21.59,9.51,-1.52,-0.25,0.06,1.18,,,
3393,-19.78,9.45,-6.23,-0.26,0.09,1.15,,,
3395,-19,8.41,-10.01,-0.27,0.09,1.17,,,
3396,-18.02,6.77,-12.61,-0.29,0.06,1.14,,,
3398,-12.36,7.23,-13.49,-0.29,0.07,1.17,,,
3399,0.73,6.43,-14.26,-0.35,0.15,1.26,,,
3401,10.72,-0.42,-16.22,-0.34,0.19,1.21,,,
3402,7.72,-9.28,-16.55,-0.32,0.17,1.11,,,
3404,-3.64,-8.22,-18.57,-0.24,0.04,0.88,,,
3406,-11.54,2,-18.14,-0.22,-0.02,0.92,,,
3408,-12.18,6.73,-16.97,-0.22,-0.02,0.92,,,
3409,-5.34,1.2,-15.22,-0.23,0.02,0.98,,,
3411,1.99,3.84,-12.9,-0.23,0.08,0.99,,,
3412,2.78,2.19,-12.75,-0.22,0.09,0.95,,,
3414,-2.19,2.57,-12.24,-0.23,0.07,0.92,,,
3415,-7.2,3.58,-10.89,-0.22,0.06,0.87,,,
3417,-8.09,2.32,-8.86,-0.2,0,0.84,,,
3418,-2.89,0.36,-6.73,-0.19,-0.04,0.85,,,
3420,5.26,-1.88,-5.52,-0.19,-0.09,0.8,,,
3421,10.89,-4.28,-5.04,-0.21,-0.09,0.8,,,
3423,11.18,-6.33,-4.38,-0.21,-0.06,0.77,,,
3424,4.44,-8.33,-3.75,-0.21,-0.06,0.76,,,
3426,-2.22,-9.3,-3.8,-0.22,-0.08,0.82,,,
3427,-4.38,-7,-3.7,-0.2,-0.13,0.89,,,
3429,-1.18,-4.43,-3.72,-0.2,-0.15,0.96,,,
3430,3.88,-4.85,-4.44,-0.21,-0.13,1.02,,,
3432,6.17,-5.76,-5.5,-0.25,-0.1,1.02,,,
3433,4.14,-2.88,-6.66,-0.26,-0.06,1.06,,,
3435,1.3,4.1,-6.61,-0.27,-0.08,1.1,,,
3436,-0.42,2.25,-8.93,-0.28,-0.03,0.9,,,
3438,-0.67,4.06,-9.59,-0.26,-0.03,1.13,,,
3439,-1.68,0.94,-10.5,-0.24,-0.03,1.04,,,
3441,-2.68,-4.08,-12.67,-0.26,0.02,1.19,,,
3442,-3.05,-3.51,-14.16,-0.22,-0.02,1.14,,,
3444,1.14,3.59,-12.09,-0.16,-0.05,1.15,,,
3445,3.62,4.77,-7.78,-0.13,0.01,1.32,,,
3447,13.19,7.8,-4.28,-0.21,0.21,1.49,,,
3448,17.29,-4.58,-4.7,-0.25,0.34,1.28,,,
3450,16.88,-19.36,-5.9,-0.23,0.28,0.93,,,
3451,9.4,-30.58,-5.03,-0.2,0.15,0.8,,,
3453,2.6,-26.68,-4.01,-0.2,0.1,0.93,,,
3454,5.17,-31.38,-5.2,-0.24,0.1,0.9,,,
3456,12.11,-38.7,-8.27,-0.27,0.1,0.88,,,
3457,19.86,-46.64,-10.67,-0.3,0.15,0.93,,,
3459,23.45,-49.96,-11.88,-0.3,0.18,0.99,,,
3460,24.89,-46.22,-10.69,-0.26,0.16,1.07,,,
3462,19.9,-38.08,-10.64,-0.23,0.18,1.04,,,
3463,10.6,-28.07,-14.41,-0.2,0.18,1.12,,,
3465,5.86,-17.08,-19.22,-0.16,0.17,0.97,,,
3466,2.8,-8.85,-23.4,-0.12,0.1,0.93,,,
3468,4.56,-4.15,-26.98,-0.11,0.11,0.97,,,
3469,10.54,-1.25,-29.82,-0.11,0.07,0.93,,,
3471,10.82,-11.16,-30.53,-0.1,0.04,0.81,,,
3472,11.11,-3.49,-30.99,-0.06,0.06,0.77,,,
3474,2.71,-1.1,-32.16,-0.06,0.12,0.79,,,
3475,-6.76,-0.2,-32.29,-0.06,0.14,0.77,,,
3477,-15.38,-2.78,-32.54,-0.04,0.13,0.8,,,
3478,-18.71,1.07,-35.34,-0.02,0.15,0.84,,,
3480,-19.06,5.04,-39.73,-0.01,0.19,0.84,,,
3481,-19.59,8.45,-45.19,0.02,0.16,0.8,,,
3483,-22.37,6.06,-46.51,0.01,0.12,0.75,,,
3484,-26.99,4.5,-48.45,-0.02,0.19,0.73,,,
3486,-29.42,4.49,-51.46,-0.01,0.2,0.73,,,
3487,-26.93,4.94,-55.59,-0.01,0.17,0.75,,,
3489,-19.86,-0.08,-59.82,-0.04,0.14,0.72,,,
3490,-12.71,-1.41,-62.2,-0.05,0.08,0.73,,,
3492,-5.66,-1.54,-61.74,-0.05,0.03,0.64,,,
3493,-2.77,-10.39,-61.48,-0.09,0.08,0.69,,,
3495,2.72,-12.75,-60.89,-0.05,0.07,0.72,,,
3496,8.22,-13.87,-60,-0.02,0.03,0.72,,,
3498,16.04,-18.04,-58.25,-0.02,0.04,0.77,,,
3499,25.93,-19.06,-59.06,-0.02,0.09,0.79,,,
3501,36,-23.23,-62.29,-0.02,0.1,0.89,,,
3504,43.64,-31.06,-65.67,0,0.13,0.93,,,
3506,52.85,-21.27,-69.67,0.04,0.19,0.93,,,
3507,50.33,-26.21,-74.58,0.04,0.26,0.98,,,
3509,44.82,-26.77,-79.54,0.08,0.29,1.06,,,
3510,38.72,-18.15,-85.22,0.09,0.36,1.11,,,
3512,29.69,-18.4,-90.56,0.06,0.34,1.12,,,
3513,20.65,-17.6,-96.9,0.01,0.37,1.26,,,
3515,11.84,4.01,-103.48,0.01,0.31,1.32,,,
3516,2.2,26.17,-104.47,0,0.26,1.22,,,
3518,-7.94,27.16,-106.35,-0.04,0.24,1.27,,,
3519,-13.61,33.96,-102.87,-0.07,0.14,1.32,,,
3521,-11.96,49.86,-95.18,-0.09,0.04,1.34,,,
3522,-9.54,45.93,-86.58,-0.16,0.03,1.32,,,
3524,-6.56,43.8,-79.22,-0.11,0.06,1.28,,,
3525,-8.58,39.94,-69.06,-0.13,0.1,1.31,,,
3527,-9.28,32.42,-57.95,-0.05,0.12,1.15,,,
3528,-5.54,30.21,-48.96,-0.07,0.16,1.29,,,
3530,7.33,24.12,-43.37,0.02,0.15,1.05,,,
3531,14.37,20.41,-41.96,0.02,0.11,1.25,,,
3533,20.71,9.56,-40.93,-0.09,0.11,1.08,,,
3534,20.9,8.54,-37.85,-0.11,0.17,1.27,,,
3536,18.95,13.05,-34.38,-0.07,0.19,1.07,,,
3537,16.56,11.38,-33.06,-0.14,0.09,0.99,,,
3539,18.69,7.11,-30.7,-0.2,0.07,1.12,,,
3540,19.53,-8.78,-28.82,-0.2,0.11,1.23,,,
3542,21.4,-16.49,-25.99,-0.14,0.06,1.11,,,
3543,20.63,-18.1,-22.36,-0.13,0.03,1.13,,,
3545,27.31,-8.82,-21.07,-0.14,0.05,1.15,,,
3546,30.85,-13.56,-23.66,-0.16,0.08,1.15,,,
3548,36.22,-28.52,-18.25,-0.04,0.05,1.26,,,
3549,39.99,-20.21,-14.81,-0.1,0.06,1.03,,,
3551,32.8,-45.55,-5.32,-0.05,-0.08,1.05,,,
3552,34.04,-19.95,3.43,-0.17,-0.05,0.81,,,
3554,9.49,-20.23,0.85,-0.13,-0.06,1.23,,,
3555,6.23,-4.29,1.03,-0.15,-0.12,1.2,,,
3557,3.2,9.33,2.23,-0.04,-0.11,1.12,,,
3558,4.75,16.64,3.78,-0.05,-0.1,1.06,,,
3560,6.11,5.73,5.33,-0.09,-0.11,1.1,,,
3561,-5.85,21.65,6.91,-0.12,-0.13,1.35,,,
3563,-37.67,37.07,8.12,-0.11,-0.06,1.44,,,
3564,-71.07,54.03,10.52,-0.11,-0.03,1.47,,,
3566,-86.29,56.45,10.84,-0.13,-0.02,1.17,,,
3567,-58.34,22.19,7.75,-0.03,0.06,2,,,
3569,-4.38,16.59,15.14,0.19,-0.07,0.87,,,
3570,-1.12,1.24,13.72,-0.24,0.12,0.99,,,
3572,-9.04,-5.28,9.41,-0.17,0.18,0.83,,,
3573,-13.54,-17.78,4.02,-0.12,0.18,0.82,,,
3575,-8.72,-17.39,-0.33,-0.09,0.09,0.83,,,
3576,-2.69,-11.39,-2.06,-0.15,0.05,0.82,,,
3578,-4.43,-13.54,-4.41,-0.26,0.02,1.1,,,
3579,-6.87,-9.29,-5.83,-0.19,-0.15,1.25,,,
3581,-9.95,-4.73,-2.16,-0.1,-0.2,1.21,,,
3582,-13.15,5.03,4.65,-0.12,-0.21,1.12,,,
3584,-15.6,3.5,11.09,-0.1,-0.11,1.01,,,
3585,-10.38,0.1,11.04,-0.1,0,1.04,,,
3587,-2.89,2.88,7.55,-0.07,0.01,1.04,,,
3588,1.01,1.55,4.26,-0.01,-0.05,1,,,
3590,2.58,-0.55,4.01,-0.02,-0.16,1.08,,,
3591,1.11,3.52,7.3,-0.01,-0.22,1.07,,,
3593,-2.22,0.84,10.62,-0.05,-0.19,1.05,,,
3594,-2.99,-2.07,12.05,-0.11,-0.11,1.04,,,
3596,3.05,0.8,12.75,-0.13,-0.09,0.95,,,
3597,8.82,-5.02,12.61,-0.16,-0.01,1.01,,,
3599,10.46,-14.59,11.91,-0.2,-0.1,0.72,,,
3601,13.27,-2.73,10.52,-0.12,0.11,1.06,,,
3603,9.4,2.71,7.09,-0.08,0.24,1.03,,,
3604,3.45,-0.24,3.52,-0.1,0.29,1.09,,,
3606,2.73,6.23,0.75,-0.09,0.27,1.15,,,
3607,6.43,13.38,0.43,-0.09,0.21,1.1,,,
3609,10.39,16.79,0.9,-0.08,0.15,1.01,,,
3610,9.27,10.79,0.23,-0.1,0.16,1.02,,,
3612,9.46,15.52,-0.08,-0.09,0.16,0.97,,,
3613,6.4,15.91,-0.15,-0.1,0.11,0.9,,,
3615,2.85,10.09,-0.2,-0.14,0.11,0.96,,,
3616,-0.83,7.63,-0.75,-0.17,0.11,1.07,,,
3618,-1.6,3.72,-1.9,-0.18,0.07,1.07,,,
3619,-1.41,5.64,-4.03,-0.17,0.05,1.11,,,
3621,-0.23,6.8,-5.35,-0.19,0,1.04,,,
3622,1.64,3,-3.37,-0.2,-0.03,0.97,,,
3624,3.84,0.07,0.13,-0.19,0,0.93,,,
3625,2.95,-2.56,1.44,-0.16,0.05,0.97,,,
3627,1.62,-3.1,2.37,-0.15,0.07,1.03,,,
3628,2.85,-1.21,3.03,-0.12,0.07,1.06,,,
3630,5.2,0.31,2.75,-0.09,0.07,1.06,,,
3631,6.37,1.5,2.81,-0.08,0.1,1.04,,,
3633,5.33,3.08,1.99,-0.07,0.13,1.02,,,
3634,4.16,4.73,0.49,-0.05,0.13,0.99,,,
3636,3.36,5.6,-0.7,-0.06,0.1,0.99,,,
3637,2.72,4.48,0.08,-0.1,0.08,1,,,
3639,1.07,3.49,0.62,-0.12,0.09,1.04,,,
3640,-0.7,3.5,0.7,-0.12,0.08,1.05,,,
3642,-5.72,2.61,0.96,-0.12,0.07,1.02,,,
3643,-12.94,-7.13,0.27,-0.13,0.02,0.69,,,
3645,-8.93,-5.84,0.23,-0.12,0.02,0.93,,,
3646,-2.21,-1.72,0.1,-0.16,0.07,1.09,,,
3648,3.85,3.17,0.8,-0.18,0.09,1.11,,,
3649,3.89,3.53,1.07,-0.15,0.09,1.08,,,
3651,0.93,4.22,1.04,-0.15,0.07,1.03,,,
3652,-0.22,6.51,0.89,-0.15,0.06,0.99,,,
3654,0.62,4.74,1.31,-0.15,0.07,0.97,,,
3655,2.56,3.29,1.59,-0.16,0.08,0.98,,,
3657,4.79,2.54,1.86,-0.16,0.08,0.99,,,
3658,6.85,1.77,1.39,-0.17,0.09,1.01,,,
3660,5.44,0.77,0.15,-0.16,0.12,1.04,,,
3661,0.38,0.38,-1.09,-0.16,0.13,1,,,
3663,-3.39,-0.64,-1.77,-0.15,0.11,1,,,
3664,-3.44,-1.48,-1.51,-0.15,0.09,1,,,
3666,-2.66,-2.07,-1.83,-0.18,0.08,1.02,,,
3667,-2.4,-4.33,-2.18,-0.18,0.09,0.99,,,
3669,-2.84,-4.92,-2.79,-0.17,0.08,1.01,,,
3670,-2.9,-4.48,-2.38,-0.15,0.07,1.02,,,
3672,-2.57,-3.89,-2.31,-0.14,0.07,1.02,,,
3673,-1.74,-2.23,-2.07,-0.13,0.06,1.03,,,
3675,-0.76,-0.57,-1.7,-0.13,0.06,1.04,,,
3676,-0.52,0.23,-1.21,-0.13,0.07,1.03,,,
3678,-0.68,0.18,-1.51,-0.14,0.08,1.02,,,
3679,0.12,0.03,-1.87,-0.14,0.07,1.01,,,
3681,1.07,-0.82,-1.69,-0.14,0.07,0.99,,,
3682,1.88,-1.41,-1.67,-0.14,0.07,1.01,,,
3684,2.17,-1.51,-1.54,-0.14,0.07,1.02,,,
3685,1.71,-1.05,-1.35,-0.14,0.07,1.04,,,
3687,1.21,-1.08,-1.26,-0.14,0.07,1.03,,,
3688,0.53,-0.48,-0.9,-0.13,0.08,1.03,,,
3690,-0.09,-0.86,-1.15,-0.12,0.09,1.02,,,
3691,-0.71,-1.36,-0.86,-0.12,0.09,1.02,,,
3693,-1.94,-1.41,-1.16,-0.12,0.08,1.02,,,
3694,-1.91,-2.29,-1.32,-0.12,0.08,1.01,,,
3696,-1.83,-2.14,-1.2,-0.11,0.07,1.01,,,
3698,-0.98,-1.6,-1.08,-0.12,0.07,1.03,,,
3700,-0.38,-0.68,-1.06,-0.11,0.07,1.04,,,
3701,-0.44,-0.04,-1.35,-0.11,0.07,1.04,,,
3703,-0.8,3.57,-1.42,-0.05,0.03,0.95,,,
3704,0.74,1.15,-1.16,-0.11,0.06,1.01,,,
3706,1.83,2.07,-0.9,-0.13,0.04,1.03,,,
3707,0.69,4.72,-0.29,-0.12,0.06,1.07,,,
3709,0.95,4.5,-0.13,-0.12,0.08,1.02,,,
3710,0.14,0.51,-0.31,-0.12,0.11,1.05,,,
3712,1.05,0.93,0.01,-0.12,0.08,1.01,,,
3713,1.07,-0.1,0.42,-0.14,0.07,1.01,,,
3715,0.07,2.17,0.56,-0.16,0.08,1.05,,,
3716,0.33,2.18,0.45,-0.17,0.08,1.02,,,
3718,-0.35,1.71,-0.32,-0.15,0.08,1.01,,,
3719,-0.7,0.98,-0.23,-0.13,0.08,0.99,,,
3721,-1.29,0.48,-0.4,-0.13,0.09,1.05,,,
3722,0.01,-0.37,-0.33,-0.13,0.07,1,,,
3724,0.05,-1.78,-0.77,-0.14,0.07,1,,,
3725,-0.54,-2.11,-0.93,-0.14,0.08,1.05,,,
3727,0.24,-0.41,-1.45,-0.14,0.09,1.08,,,
3728,1.11,3.71,-1.51,-0.13,0.08,1.07,,,
3730,1.65,2.25,-1.81,-0.12,0.09,1.04,,,
3731,0.66,1.79,-1.89,-0.1,0.08,1.01,,,
3733,0.43,2.52,-1.41,-0.12,0.05,1,,,
3734,-0.38,0.31,0.06,-0.15,0.06,0.98,,,
3736,-4.24,-5.44,-0.67,-0.09,0.09,1,,,
3737,-1.22,-0.13,-0.4,-0.17,0.07,1.04,,,
3739,0.24,-0.66,-0.16,-0.18,0.06,1.06,,,
3740,0.3,-0.53,0.11,-0.15,0.08,1.08,,,
3742,-1.36,1.55,0.2,-0.11,0.06,1,,,
3743,-0.64,1.71,0.43,-0.1,0.07,0.98,,,
3745,-0.63,1.11,-0.18,-0.13,0.09,1,,,
3746,-0.99,-1.74,-0.22,-0.14,0.05,1.03,,,
3748,0.82,0.25,0.19,-0.17,0.05,1.05,,,
3749,0.46,0.45,0.34,-0.14,0.07,1.01,,,
3751,-0.88,0.4,-0.19,-0.14,0.1,1.05,,,
3752,-0.22,2.13,-0.74,-0.14,0.08,1.05,,,
3754,0.47,2.65,-0.41,-0.12,0.08,1.03,,,
3755,2.2,1.35,-0.07,-0.12,0.09,0.98,,,
3757,-0.19,-4.19,-0.89,-0.13,0.07,0.98,,,
3758,-0.18,-2.73,-0.47,-0.15,0.06,1.06,,,
3760,0.19,0.71,-0.03,-0.13,0.07,1.07,,,
3761,1.1,3.03,-0.66,-0.12,0.09,1.06,,,
3763,0.75,1.71,0,-0.1,0.07,1.01,,,
